right_q,right_q_dot,left_q,left_q_dot,pelv_ang_1,pelv_ang_2,pelv_ang_3,pelv_acc_1,pelv_acc_1,pelv_acc_3,right_shoulder_ang_x,right_shoulder_ang_y,right_shoulder_ang_z,right_shoulder_acc_x,right_shoulder_acc_y,right_shoulder_acc_z,left_shoulder_ang_x,left_shoulder_ang_y,left_shoulder_ang_z,left_shoulder_acc_x,left_shoulder_acc_y,left_shoulder_acc_z,,,,Label
-0.2537,-0.0398,0.0116,0.3186,-0.5879,-0.3116,-0.1152,0.843,9.5036,0.5669,0.3584,0.2907,-2.5907,1.9524,5.2384,8.25,0.5931,0.774,-0.3712,0.7303,-5.7607,7.6141,0.937236,0,1698651997,0
-0.2537,-0.0481,0.0153,0.312,-0.5603,-0.1583,-0.1418,0.9357,9.5775,0.6063,0.3769,0.332,-2.4806,1.9118,5.2387,8.2573,0.6524,0.6973,-0.3416,0.683,-5.734,7.567,0.951205,0,1698651997,1
-0.2536,-0.0294,0.0185,0.2928,-0.6079,-0.023,-0.2238,1.0165,9.7074,0.624,0.4109,0.3828,-2.3696,1.864,5.2353,8.2605,0.7003,0.6062,-0.3058,0.6569,-5.7004,7.5335,0.962095,0,1698651997,1
-0.2536,-0.0159,0.0213,0.2825,-0.7293,0.1127,-0.3156,1.0739,9.8037,0.5745,0.4432,0.3984,-2.262,1.8097,5.2419,8.2708,0.728,0.5201,-0.2593,0.653,-5.6567,7.5126,0.970557,0,1698651997,2
-0.2535,-0.0216,0.024,0.2899,-0.8372,0.2276,-0.3878,1.1065,9.8151,0.5496,0.4581,0.3492,-2.1503,1.7547,5.2594,8.2721,0.7351,0.4413,-0.2113,0.6299,-5.6324,7.4934,0.97713,0,1698651997,3
-0.2535,-0.0236,0.0273,0.3005,-0.8784,0.3261,-0.4387,1.135,9.7503,0.5453,0.4612,0.2854,-2.0269,1.709,5.2797,8.2633,0.7313,0.352,-0.1739,0.5892,-5.6234,7.4721,0.982236,0,1698651997,3
-0.2533,-0.0087,0.0314,0.326,-0.786,0.4555,-0.4382,1.1959,9.5764,0.6261,0.4567,0.2162,-1.8893,1.6554,5.2994,8.2681,0.7283,0.2426,-0.1569,0.5432,-5.6212,7.4339,0.986202,0,1698651997,4
-0.253,0.0022,0.0356,0.3416,-0.629,0.6156,-0.4165,1.2234,9.5261,0.7172,0.4499,0.1344,-1.7398,1.6047,5.315,8.285,0.7276,0.1286,-0.1496,0.4826,-5.6275,7.3941,0.989283,0,1698651997,5
-0.2527,0.0026,0.0386,0.3185,-0.5735,0.8184,-0.4022,1.2013,9.6254,0.6637,0.4462,0.0461,-1.5939,1.5791,5.3164,8.308,0.7271,-0.0179,-0.1371,0.4363,-5.6314,7.3813,0.991676,0,1698651997,6
-0.2525,0.0035,0.041,0.2936,-0.5917,1.0169,-0.4218,1.234,9.6449,0.5885,0.4383,-0.0523,-1.472,1.5548,5.3135,8.3376,0.7259,-0.21,-0.1061,0.4159,-5.6306,7.3821,0.993534,0,1698651997,6
-0.2525,0.0021,0.0431,0.2665,-0.6187,1.1625,-0.4728,1.2811,9.5937,0.564,0.4176,-0.1585,-1.3611,1.5431,5.3118,8.3684,0.719,-0.3729,-0.0513,0.4136,-5.6464,7.3905,0.994978,0,1698651997,7
-0.2525,-0.0008,0.0458,0.264,-0.6243,1.3207,-0.5031,1.2426,9.5259,0.4904,0.376,-0.2615,-1.2196,1.5634,5.3078,8.3936,0.7068,-0.5122,0.0014,0.4175,-5.6717,7.4039,0.996099,0,1698651997,8
-0.2524,0.0044,0.049,0.279,-0.5188,1.511,-0.4942,1.16,9.5139,0.3499,0.3344,-0.3509,-1.0535,1.5906,5.3084,8.4153,0.7024,-0.6401,0.0373,0.4012,-5.7055,7.4365,0.99697,0,1698651997,8
-0.2524,-0.0024,0.0525,0.2998,-0.3575,1.7525,-0.483,1.1493,9.4572,0.1806,0.3224,-0.4084,-0.8861,1.6041,5.3202,8.4453,0.7135,-0.7743,0.0541,0.3363,-5.7435,7.4822,0.997647,0,1698651997,9
-0.2523,-0.0128,0.0558,0.3289,-0.124,1.9784,-0.5076,1.2455,9.3977,0.0718,0.3063,-0.4206,-0.7194,1.6313,5.3466,8.4967,0.7375,-0.9637,0.0483,0.2465,-5.7768,7.5377,0.998172,0,1698651997,10
-0.2518,0.0073,0.0589,0.3346,0.2073,2.0985,-0.5215,1.2213,9.6249,0.0114,0.2853,-0.3969,-0.5601,1.6536,5.3747,8.5438,0.7561,-1.2004,0.0473,0.1869,-5.8165,7.6198,0.99858,0,1698651997,10
-0.2505,0.0628,0.062,0.3199,0.4229,2.2531,-0.4829,1.0622,10.0528,-0.1713,0.3014,-0.3598,-0.4236,1.6516,5.4157,8.5699,0.7672,-1.5393,0.0712,0.1807,-5.8581,7.7494,0.998897,0,1698651997,11
-0.2477,0.1293,0.0653,0.3182,0.4344,2.4815,-0.43,0.9004,10.2508,-0.31,0.3428,-0.3513,-0.3287,1.675,5.4839,8.5796,0.7544,-1.8417,0.1426,0.2312,-5.8845,7.9064,0.999143,0,1698651997,12
-0.2427,0.1959,0.0688,0.3256,0.3539,2.6452,-0.3965,0.77,10.2616,-0.2411,0.5804,-0.384,-0.2575,1.7281,5.5594,8.6028,0.7267,-2.0144,0.2595,0.2908,-5.9058,8.0465,0.999335,0,1698651997,13
-0.236,0.2773,0.0723,0.3312,0.3416,2.6914,-0.4046,0.7095,10.2769,-0.0697,0.7615,-0.4145,-0.1707,1.776,5.6415,8.642,0.723,-2.1673,0.3809,0.3395,-5.9365,8.1867,0.999483,0,1698651997,13
-0.2273,0.3823,0.0749,0.2977,0.4335,2.654,-0.4407,0.5711,10.4118,0.1054,0.7233,-0.3691,-0.0547,1.8002,5.7405,8.6826,0.7372,-2.3329,0.4939,0.3986,-5.9783,8.3377,0.999599,0,1698651997,14
-0.217,0.4845,0.0765,0.2353,0.5074,2.5977,-0.4704,0.3068,10.6229,0.2735,0.7378,-0.2061,0.0704,1.8008,5.8455,8.7678,0.7533,-2.5451,0.6039,0.4836,-6.0177,8.5032,0.999688,0,1698651997,15
-0.2071,0.567,0.0775,0.1968,0.4634,2.5139,-0.485,-0.0333,10.8034,0.4954,0.8029,-0.0138,0.205,1.7737,5.9725,8.876,0.7462,-2.7405,0.7132,0.6373,-6.0435,8.6867,0.999758,0,1698651997,15
-0.1988,0.6295,0.0782,0.1791,0.3389,2.39,-0.4716,-0.4372,11.0645,0.716,0.9028,0.1347,0.3479,1.7326,6.1492,8.9819,0.7049,-2.8361,0.8236,0.8505,-6.0654,8.8758,0.999812,0,1698651997,16
-0.1922,0.6211,0.0789,0.1512,0.2874,2.2035,-0.3939,-0.8578,11.2932,0.9265,1.0239,0.2338,0.5024,1.6983,6.3394,9.115,0.6729,-2.7996,0.9179,1.0714,-6.1032,9.0673,0.999854,0,1698651997,17
-0.1875,0.5508,0.0793,0.1092,0.272,1.9512,-0.2764,-1.1901,11.3685,1.1155,1.1486,0.2793,0.6803,1.6455,6.5472,9.2453,0.6624,-2.628,0.9818,1.2604,-6.1529,9.2537,0.999887,0,1698651997,17
-0.1849,0.4482,0.0792,0.0905,0.2738,1.6641,-0.1648,-1.4258,11.2556,1.2943,1.2207,0.2626,0.8697,1.536,6.7445,9.3233,0.6791,-2.3866,1.0016,1.3716,-6.1803,9.3994,0.999912,0,1698651997,18
-0.1841,0.3376,0.079,0.0797,0.3765,1.378,-0.0269,-1.5715,11.0714,1.43,1.2393,0.1789,1.0568,1.3962,6.8827,9.3631,0.7354,-2.1232,0.9641,1.3976,-6.158,9.4793,0.999932,0,1698651997,19
-0.184,0.2446,0.0787,0.0578,0.5305,1.172,0.0879,-1.5691,10.9305,1.4675,1.2128,0.0279,1.2217,1.2785,6.9642,9.3415,0.815,-1.8427,0.8677,1.3675,-6.0817,9.4864,0.999947,0,1698651997,19
-0.1838,0.1923,0.0784,0.0316,0.6773,1.0247,0.1327,-1.4176,10.7016,1.5586,1.1232,-0.2377,1.3686,1.1946,6.9758,9.2396,0.9032,-1.5354,0.7119,1.2827,-5.9977,9.4413,0.999959,0,1698651997,20
-0.1832,0.1733,0.0772,-0.0174,0.9218,0.8609,0.1232,-1.1343,10.1521,1.7666,0.9956,-0.5395,1.504,1.1727,6.9224,9.0954,1.0041,-1.2465,0.5252,1.1048,-5.9082,9.3299,0.999968,0,1698651997,21
-0.1816,0.1877,0.0736,-0.1169,1.2276,0.7098,0.0937,-0.6979,9.6159,1.8684,0.8761,-0.6546,1.6372,1.2014,6.8234,8.9305,1.1345,-1.0416,0.3529,0.8515,-5.7866,9.1538,0.999975,0,1698651997,22
-0.1782,0.2588,0.068,-0.2504,1.3815,0.6325,0.0529,-0.3569,9.4739,1.8345,0.7756,-0.6366,1.7859,1.2376,6.6893,8.719,1.2946,-0.9617,0.243,0.5357,-5.6331,8.9395,0.999981,0,1698651997,22
-0.1726,0.3447,0.0603,-0.394,1.4628,0.6304,-0.0453,-0.2016,9.6464,1.7152,0.7163,-0.5979,1.9653,1.2692,6.5483,8.4834,1.47,-1.0301,0.2011,0.2093,-5.4574,8.6889,0.999985,0,1698651997,23
-0.1659,0.4102,0.0501,-0.5175,1.5523,0.6714,-0.171,-0.0382,9.7579,1.5928,0.6949,-0.4903,2.1617,1.3014,6.4133,8.2523,1.6276,-1.194,0.2196,-0.0491,-5.2622,8.413,0.999988,0,1698651997,24
-0.1591,0.4629,0.0397,-0.6119,1.6014,0.7518,-0.307,0.1788,9.7039,1.5841,0.6835,-0.2993,2.3535,1.2915,6.2706,8.0145,1.7398,-1.421,0.309,-0.2466,-5.0319,8.1409,0.999991,0,1698651997,24
-0.1525,0.5039,0.029,-0.7244,1.5322,0.8671,-0.4646,0.4353,9.7283,1.5351,0.6976,-0.0309,2.5332,1.2221,6.1645,7.7879,1.8005,-1.6833,0.4577,-0.3544,-4.7879,7.8861,0.999993,0,1698651997,25
-0.146,0.5317,0.0174,-0.8312,1.4452,0.9166,-0.6151,0.5859,9.9677,1.4606,0.7213,0.2211,2.6795,1.143,6.0949,7.5739,1.7888,-1.9084,0.6329,-0.3551,-4.5623,7.6672,0.999995,0,1698651997,26
-0.1397,0.5545,0.0044,-0.9281,1.4031,0.9457,-0.7695,0.5021,10.0653,1.5114,0.7619,0.4109,2.7847,1.0682,6.0211,7.3654,1.7074,-2.0526,0.8209,-0.2743,-4.3672,7.5058,0.999996,0,1698651997,26
-0.1333,0.5937,-0.0092,-1.0496,1.2145,1.0595,-0.9219,0.3804,9.8922,1.5684,0.8445,0.5983,2.8348,1.0203,5.9723,7.1637,1.5912,-2.1492,1.0027,-0.1459,-4.189,7.3893,0.999997,0,1698651997,27
-0.1276,0.6182,-0.0231,-1.1392,1.0672,1.1598,-1.0078,0.2147,9.9125,1.5924,0.9386,0.79,2.8329,1.0066,5.9612,6.9976,1.4584,-2.2235,1.1619,-0.0105,-4.0313,7.3279,0.999997,0,1698651997,28
-0.1229,0.6003,-0.0378,-1.2422,1.0005,1.2394,-1.0473,-0.0919,9.8018,1.6639,1.0107,0.9107,2.8134,1.0007,5.9683,6.8631,1.3033,-2.2257,1.2974,0.1258,-3.9107,7.3307,0.999998,0,1698651997,28
-0.1181,0.5834,-0.0539,-1.3687,0.8055,1.3796,-1.0703,-0.2601,9.5053,1.7059,1.0958,0.9473,2.7975,0.9898,6.0016,6.7449,1.124,-2.1508,1.4061,0.2495,-3.8254,7.4027,0.999998,0,1698651997,29
-0.113,0.5672,-0.0706,-1.4282,0.4947,1.5158,-1.0719,-0.2734,9.4291,1.6847,1.213,0.9153,2.7834,0.9789,6.0806,6.6694,0.9404,-2.0448,1.488,0.3331,-3.7767,7.5441,0.999999,0,1698651997,30
-0.108,0.5472,-0.087,-1.5002,0.243,1.5483,-1.0306,-0.4216,9.5897,1.6001,1.3253,0.818,2.7742,0.9878,6.199,6.6744,0.7637,-1.9498,1.5413,0.3923,-3.7629,7.7199,0.999999,0,1698651997,31
-0.1034,0.5409,-0.1027,-1.5752,0.1141,1.5531,-0.938,-0.7292,9.8077,1.5067,1.4134,0.681,2.7721,1.0324,6.3623,6.7432,0.5933,-1.8887,1.5802,0.4336,-3.7763,7.9119,0.999999,0,1698651997,31
-0.0985,0.5474,-0.1186,-1.6414,-0.0057,1.6403,-0.8082,-0.9641,9.8717,1.4699,1.469,0.5312,2.7825,1.1058,6.5535,6.8565,0.4285,-1.8489,1.613,0.4602,-3.8177,8.155,0.999999,0,1698651997,32
-0.093,0.5433,-0.1353,-1.691,-0.0851,1.7779,-0.6553,-1.0196,9.7613,1.487,1.5054,0.3944,2.8161,1.1972,6.7443,7.0111,0.2809,-1.8129,1.6469,0.4957,-3.8971,8.442,1,0,1698651997,33
-0.0877,0.5318,-0.1517,-1.6711,-0.1102,1.8635,-0.4965,-0.9871,9.6692,1.512,1.5371,0.2557,2.8643,1.2977,6.9416,7.1889,0.1594,-1.7833,1.6869,0.5432,-4.0051,8.7207,1,0,1698651997,33
-0.0824,0.51,-0.1675,-1.6291,-0.1961,1.8968,-0.3519,-0.9979,9.6551,1.4933,1.5634,0.1071,2.9231,1.4142,7.1246,7.3695,0.0676,-1.7722,1.7231,0.604,-4.1154,8.9535,1,0,1698651997,34
-0.0771,0.4987,-0.1825,-1.6081,-0.3327,1.8783,-0.2387,-1.1322,9.8577,1.4119,1.5745,-0.0253,3.0003,1.5149,7.2945,7.5311,0.0049,-1.7508,1.7504,0.6757,-4.2131,9.1483,1,0,1698651997,35
-0.0718,0.4954,-0.1967,-1.5632,-0.3809,1.7881,-0.1832,-1.4054,10.278,1.277,1.5473,-0.1461,3.0901,1.5859,7.4783,7.6944,-0.0328,-1.683,1.7656,0.7574,-4.2989,9.2872,1,0,1698651997,35
-0.0667,0.4896,-0.2104,-1.4809,-0.3075,1.6593,-0.2039,-1.6253,10.496,1.2169,1.4955,-0.2476,3.1777,1.6509,7.6104,7.8436,-0.0433,-1.5809,1.7629,0.8454,-4.393,9.3858,1,0,1698651997,36
-0.0623,0.4905,-0.2221,-1.4199,-0.2573,1.514,-0.3104,-1.6094,10.447,1.1962,1.4306,-0.3614,3.2577,1.7054,7.6927,7.9679,-0.0353,-1.4565,1.7421,0.937,-4.4916,9.4412,0.999999,0,1698651997,37
-0.0585,0.4645,-0.2321,-1.3372,-0.2166,1.3407,-0.4885,-1.5406,10.3894,1.144,1.3494,-0.4804,3.3053,1.7726,7.728,8.0691,-0.0248,-1.3113,1.7115,1.0306,-4.5689,9.4023,0.999999,0,1698651997,38
-0.055,0.4349,-0.2412,-1.2323,-0.1075,1.114,-0.7164,-1.535,10.2706,1.1783,1.2489,-0.6939,3.3142,1.836,7.6712,8.1107,-0.0167,-1.1814,1.6825,1.098,-4.5982,9.3006,0.999998,0,1698651997,38
-0.0519,0.3935,-0.2494,-1.1499,-0.0134,0.8732,-0.9948,-1.5651,10.154,1.1763,1.118,-1.06,3.3049,1.8919,7.5796,8.1122,-0.0044,-1.0729,1.672,1.1378,-4.5841,9.1645,0.999997,0,1698651997,39
-0.0495,0.3312,-0.2574,-1.0691,0.0291,0.6162,-1.3107,-1.5578,10.0956,1.1312,1.0564,-1.3375,3.2798,1.941,7.5413,7.9303,0.0026,-0.9426,1.68,1.1708,-4.5483,8.9922,0.999991,0,1698651997,40
-0.0477,0.2957,-0.2648,-0.9942,0.0766,0.305,-1.62,-1.5804,10.0525,1.1202,1.0051,-1.3699,3.2373,2.0072,7.4447,7.7152,-0.0056,-0.7826,1.7007,1.2074,-4.4686,8.7926,0.999973,0,1698651997,40
-0.0461,0.2751,-0.2719,-0.9246,0.0972,0.0318,-1.8935,-1.5876,9.9879,1.0101,0.9073,-1.1802,3.1813,2.1232,7.2563,7.6324,-0.0358,-0.6038,1.7407,1.2398,-4.3584,8.5761,0.999926,0,1698651997,41
-0.0441,0.2467,-0.2779,-0.8271,0.0613,-0.1932,-2.146,-1.579,9.7666,0.869,1.0291,-0.9128,3.1062,2.2046,7.0563,7.587,-0.0738,-0.4614,1.7853,1.2308,-4.2575,8.3583,0.999789,0,1698651997,42
-0.0418,0.2233,-0.2829,-0.7356,0.0411,-0.414,-2.3293,-1.5758,9.5802,0.7752,1.1254,-0.5346,3.0547,2.2466,6.8814,7.4815,-0.0854,-0.4012,1.8328,1.1789,-4.1741,8.1666,0.999322,0,1698651997,42
-0.0394,0.2202,-0.2877,-0.6799,0.0876,-0.612,-2.401,-1.5447,9.7317,0.7015,0.9803,-0.1489,3.0003,2.2943,6.7617,7.3268,-0.1327,-0.328,1.8927,1.1255,-4.1141,8.0228,0.997391,0,1698651997,43
-0.0368,0.2591,-0.2923,-0.6222,0.2004,-0.7503,-2.4004,-1.6122,9.7552,0.697,0.8455,0.1005,2.9017,2.3214,6.6411,7.2106,-0.2223,-0.2327,1.9784,1.0888,-4.0769,7.9196,0.974159,0,1698651997,44
-0.0341,0.2896,-0.2957,-0.543,0.2403,-0.8042,-2.3198,-1.5695,9.4129,0.7626,0.7331,0.2703,2.8098,2.3427,6.5282,7.1047,-0.2937,-0.1775,2.0859,1.0729,-4.0696,7.8451,0.795002,0,1698651997,44
-0.0318,0.2696,-0.2979,-0.467,0.273,-0.8596,-2.1584,-1.4652,9.3259,0.7722,0.5605,0.3273,2.7078,2.4232,6.4092,7.0544,-0.3533,-0.1568,2.1864,1.0728,-4.0781,7.7996,0.484734,0,1698651997,45
-0.0297,0.2622,-0.2998,-0.4056,0.2191,-0.9052,-2.01,-1.4455,9.375,0.7502,0.4291,0.3868,2.5723,2.4394,6.3128,6.9919,-0.415,-0.1765,2.267,1.0797,-4.0799,7.7754,0.191792,0,1698651997,46
-0.0271,0.2928,-0.3019,-0.3621,0.0273,-0.9006,-1.9118,-1.401,9.3649,0.7078,0.4011,0.491,2.4116,2.3489,6.2705,6.9153,-0.4816,-0.2173,2.3279,1.0926,-4.0882,7.798,-0.064496,0,1698651997,47
-0.0231,0.341,-0.3048,-0.3555,-0.1311,-0.908,-1.8329,-1.3276,9.3789,0.647,0.3811,0.5915,2.2494,2.3176,6.2727,6.8768,-0.5539,-0.2474,2.3693,1.1231,-4.0912,7.8445,-0.271941,0,1698651997,47
-0.0182,0.3696,-0.3081,-0.3583,-0.2481,-0.9087,-1.6848,-1.3108,9.235,0.7051,0.3596,0.685,2.1122,2.3416,6.299,6.8395,-0.6151,-0.2443,2.3818,1.1567,-4.0853,7.9052,-0.434312,0,1698651997,48
-0.0134,0.3599,-0.3108,-0.3295,-0.3919,-0.8181,-1.4717,-1.2718,9.1813,0.6704,0.3361,0.7541,2.01,2.3405,6.3296,6.7814,-0.6524,-0.2248,2.3745,1.1805,-4.0975,8.01,-0.560563,0,1698651997,49
-0.0094,0.3399,-0.3122,-0.2731,-0.5333,-0.7307,-1.2465,-1.2401,9.3231,0.5471,0.3016,0.784,1.9306,2.3178,6.3787,6.733,-0.6703,-0.2046,2.3612,1.2128,-4.1057,8.1321,-0.65866,0,1698651997,49
-0.0055,0.3317,-0.3126,-0.2281,-0.6185,-0.6866,-1.029,-1.3163,9.324,0.5511,0.2399,0.6938,1.8578,2.2947,6.4553,6.7238,-0.662,-0.1881,2.3397,1.2488,-4.093,8.2486,-0.734868,0,1698651997,50
-0.0009,0.3534,-0.3125,-0.2046,-0.7682,-0.6396,-0.878,-1.3306,9.2544,0.5483,0.1843,0.5625,1.7885,2.2851,6.5242,6.7209,-0.6292,-0.1786,2.3086,1.2878,-4.0803,8.3543,-0.794063,0,1698651997,51
0.0039,0.4049,-0.3125,-0.179,-0.9126,-0.6542,-0.7573,-1.2992,9.3016,0.5643,0.1658,0.5132,1.7066,2.2838,6.5679,6.7043,-0.5858,-0.1619,2.2724,1.333,-4.0733,8.4431,-0.840043,0,1698651997,51
0.0085,0.4285,-0.3124,-0.1413,-1.0213,-0.669,-0.6269,-1.3178,9.3757,0.5845,0.1566,0.6514,1.608,2.2844,6.6111,6.7135,-0.5419,-0.1396,2.2256,1.3874,-4.0692,8.4987,-0.875756,0,1698651997,52
0.0123,0.4164,-0.3122,-0.1034,-1.1569,-0.6515,-0.4957,-1.286,9.3937,0.5454,0.1511,0.723,1.4837,2.3231,6.6602,6.7188,-0.4839,-0.1213,2.1663,1.4529,-4.0674,8.5386,-0.903496,0,1698651997,53
0.016,0.3915,-0.3121,-0.0687,-1.2886,-0.6353,-0.3632,-1.2384,9.334,0.5096,0.1528,0.5962,1.3377,2.3689,6.7023,6.7178,-0.4056,-0.0876,2.0801,1.5396,-4.0611,8.5691,-0.925043,0,1698651997,53
0.0197,0.3777,-0.3119,-0.0386,-1.4233,-0.6407,-0.2449,-1.2334,9.2571,0.4407,0.1508,0.484,1.2039,2.4021,6.7305,6.7272,-0.3218,-0.0111,1.9493,1.6283,-4.029,8.5886,-0.941778,0,1698651997,54
0.0232,0.3636,-0.3114,-0.0133,-1.5169,-0.6687,-0.1215,-1.2189,9.1639,0.3824,0.1398,0.379,1.0948,2.462,6.7569,6.7281,-0.2295,0.0935,1.7803,1.675,-3.9819,8.6004,-0.954778,0,1698651997,55
0.0261,0.3276,-0.3103,0.0275,-1.5111,-0.6495,0.0237,-1.2368,9.0384,0.3873,0.1142,0.3205,1.0016,2.4953,6.7906,6.7277,-0.1305,0.2148,1.5963,1.6936,-3.928,8.5875,-0.964874,0,1698651998,56
0.0286,0.3051,-0.309,0.0582,-1.5195,-0.5682,0.1604,-1.2463,9.0007,0.3799,0.0611,0.3313,0.9002,2.5053,6.8295,6.7309,-0.0493,0.3848,1.415,1.7135,-3.8636,8.5459,-0.972711,0,1698651998,56
0.0305,0.2907,-0.3074,0.0671,-1.5753,-0.5272,0.2726,-1.2378,8.7932,0.4429,-0.0083,0.3814,0.7848,2.5414,6.8456,6.7291,0.012,0.5953,1.229,1.6915,-3.8285,8.4999,-0.97878,0,1698651998,57
0.0327,0.2895,-0.3053,0.0947,-1.6921,-0.5524,0.329,-1.1744,8.6133,0.4977,-0.0792,0.4306,0.6789,2.5692,6.8629,6.7363,0.0597,0.7861,1.03,1.611,-3.8029,8.4771,-0.983427,0,1698651998,58
0.0356,0.2969,-0.3028,0.1379,-1.7674,-0.5737,0.3584,-1.1324,8.8109,0.4627,-0.1368,0.4492,0.5993,2.5694,6.8975,6.7715,0.0958,0.9257,0.8132,1.4737,-3.7748,8.4641,-0.98667,0,1698651998,58
0.0386,0.2927,-0.2993,0.2115,-1.6188,-0.592,0.4042,-1.2506,8.9494,0.4457,-0.1731,0.3912,0.5374,2.5439,6.9222,6.8176,0.1145,1.0001,0.5885,1.2949,-3.7828,8.4618,-0.987794,0,1698651998,59
0.0416,0.2835,-0.2945,0.2978,-1.3568,-0.5993,0.4457,-1.3375,9.0728,0.3745,-0.1902,0.2626,0.4911,2.511,6.9424,6.8664,0.1035,1.0033,0.3757,1.1092,-3.8096,8.4699,-0.987627,0,1698651998,60
0.0446,0.2941,-0.2891,0.3488,-1.0451,-0.6101,0.4993,-1.4104,9.2506,0.3561,-0.212,-0.0162,0.4662,2.4903,6.967,6.9215,0.0736,0.9385,0.19,0.9326,-3.831,8.4642,-0.988965,0,1698651998,60
0.0479,0.3109,-0.2846,0.3584,-0.647,-0.6288,0.5537,-1.5162,9.238,0.43,-0.2485,-0.3061,0.4605,2.5076,6.9981,6.9755,0.0359,0.8234,0.0457,0.7813,-3.8482,8.4584,-0.991428,0,1698651998,61
0.0514,0.3296,-0.281,0.345,-0.302,-0.5887,0.5976,-1.5267,9.0804,0.4173,-0.2769,-0.5065,0.4705,2.5333,7.027,7.0172,-0.0087,0.6803,-0.0536,0.6513,-3.8583,8.4547,-0.99334,0,1698651998,62
0.0554,0.3574,-0.2778,0.3376,-0.0443,-0.5585,0.6275,-1.486,9.0259,0.3316,-0.3049,-0.7099,0.5005,2.5589,7.064,7.0282,-0.0655,0.5223,-0.1231,0.539,-3.8589,8.4484,-0.95498,0,1698651998,63
0.0598,0.3592,-0.2745,0.3572,0.2326,-0.5844,0.6558,-1.5223,9.0092,0.3041,-0.3275,-0.7307,0.5408,2.5742,7.1151,7.0343,-0.1369,0.3501,-0.1685,0.4569,-3.8514,8.4475,-0.823701,0,1698651998,63
0.0636,0.3444,-0.2721,0.3493,0.4673,-0.6019,0.7213,-1.5633,9.0024,0.2634,-0.3391,-0.6079,0.5874,2.5501,7.1637,7.0409,-0.2196,0.1687,-0.185,0.4174,-3.8239,8.4518,-0.657677,0,1698651998,64
0.0663,0.3194,-0.2715,0.2826,0.5302,-0.6701,0.8139,-1.5448,9.242,0.1164,-0.3549,-0.5424,0.6424,2.5254,7.1907,7.022,-0.3128,-0.0063,-0.1731,0.445,-3.7884,8.4595,-0.554495,0,1698651998,65
0.0685,0.2842,-0.2718,0.221,0.5203,-0.7998,0.9003,-1.6433,9.4128,-0.0302,-0.3723,-0.5452,0.686,2.5202,7.2132,7.0084,-0.4236,-0.1329,-0.1426,0.5207,-3.7688,8.4946,-0.510979,0,1698651998,65
0.0712,0.2859,-0.2718,0.1535,0.4862,-0.9849,0.9521,-1.749,9.4717,-0.1801,-0.4275,-0.6181,0.7053,2.5217,7.2399,7.0171,-0.5633,-0.1937,-0.1036,0.5982,-3.779,8.5464,-0.550678,0,1698651998,66
0.0745,0.3075,-0.2719,0.1007,0.4598,-1.2224,0.9693,-1.8048,9.5928,-0.2981,-0.5327,-0.788,0.7041,2.52,7.2648,7.0661,-0.7264,-0.2128,-0.0784,0.6753,-3.8224,8.6121,-0.648784,0,1698651998,67
0.0779,0.3165,-0.2718,0.0781,0.6275,-1.4793,1.0048,-1.8827,9.6939,-0.2976,-0.6621,-0.9908,0.6947,2.5405,7.2757,7.1792,-0.8777,-0.2371,-0.086,0.768,-3.9054,8.6917,-0.727187,0,1698651998,67
0.0809,0.3026,-0.2716,0.0685,0.9223,-1.7112,1.0699,-1.9138,9.9551,-0.259,-0.7677,-1.179,0.6704,2.5832,7.3028,7.3253,-0.9945,-0.3121,-0.1159,0.8844,-4.0326,8.7826,-0.788073,0,1698651998,68
0.0827,0.2464,-0.2712,0.0653,1.2083,-1.8794,1.0889,-1.9291,10.2516,-0.1672,-0.8327,-1.326,0.6063,2.6535,7.3573,7.5193,-1.0894,-0.3747,-0.168,1.0087,-4.1897,8.9083,-0.83536,0,1698651998,69
0.0834,0.186,-0.2701,0.0684,1.3223,-2.0663,1.0338,-1.8381,10.3889,0.0524,-0.8917,-1.3754,0.5113,2.7357,7.4341,7.7467,-1.1802,-0.3721,-0.2647,1.1096,-4.3766,9.0546,-0.872096,0,1698651998,69
0.0834,0.1295,-0.2669,0.1072,1.2898,-2.2532,0.916,-1.6175,10.5031,0.3737,-0.9418,-1.3771,0.4094,2.7941,7.548,8.0165,-1.2856,-0.2798,-0.4055,1.1743,-4.6114,9.2177,-0.900644,0,1698651998,70
0.083,0.0824,-0.2613,0.2072,1.2748,-2.3678,0.7853,-1.317,10.5516,0.7905,-0.9917,-1.358,0.3022,2.8492,7.638,8.3531,-1.4007,-0.1204,-0.5753,1.2181,-4.9068,9.4026,-0.922824,0,1698651998,71
0.0826,0.0668,-0.2547,0.315,1.3518,-2.3775,0.6821,-0.9516,10.5848,1.2373,-1.0433,-1.3841,0.178,2.8868,7.6869,8.6798,-1.4893,0.0231,-0.7737,1.2511,-5.2405,9.5941,-0.940054,0,1698651998,72
0.0823,0.0409,-0.2487,0.3629,1.5752,-2.3057,0.5747,-0.5852,10.7161,1.6257,-1.0937,-1.4657,0.0389,2.9129,7.7238,8.9404,-1.5104,0.0442,-1.0148,1.2423,-5.5659,9.7827,-0.953436,0,1698651998,72
0.0808,-0.0213,-0.2443,0.3667,1.9924,-2.1529,0.4895,-0.2893,10.6198,1.9964,-1.1617,-1.5359,-0.0955,2.9208,7.7393,9.1223,-1.4654,-0.0587,-1.2914,1.1611,-5.8225,9.9283,-0.963799,0,1698651998,73
0.077,-0.1443,-0.2412,0.3509,2.3574,-1.8586,0.4063,-0.0831,10.3504,2.2784,-1.2529,-1.5427,-0.2119,2.8775,7.7281,9.2088,-1.3904,-0.1915,-1.5609,1.0924,-5.9787,9.9853,-0.969351,0,1698651998,74
0.0701,-0.34,-0.238,0.3506,2.4048,-1.5542,0.3068,0.0718,10.363,2.4373,-1.3553,-1.4755,-0.3202,2.7987,7.6617,9.1913,-1.2913,-0.3091,-1.7932,1.0818,-6.0546,9.9443,-0.918902,0,1698651998,74
0.06,-0.5315,-0.2344,0.3681,2.3105,-1.3655,0.2431,0.0483,10.5714,2.5124,-1.4459,-1.27,-0.4367,2.6379,7.5294,9.1266,-1.1597,-0.3655,-1.9924,1.1081,-6.0663,9.7839,-0.756671,0,1698651998,75
0.0472,-0.6758,-0.2305,0.3847,2.1451,-1.2308,0.22,-0.1076,10.7014,2.4748,-1.4839,-0.9084,-0.5578,2.3605,7.3454,9.0026,-1.0021,-0.3173,-2.182,1.1592,-6.0235,9.5142,-0.519812,0,1698651998,76
0.0315,-0.8635,-0.2268,0.3834,1.8607,-1.1313,0.1714,-0.2728,10.683,2.3389,-1.5134,-0.5039,-0.6877,2.0644,7.0811,8.794,-0.8354,-0.1537,-2.3753,1.1917,-5.9502,9.1909,-0.247687,0,1698651998,76
0.0143,-1.0562,-0.2228,0.3701,1.524,-1.1401,0.0996,-0.5457,10.663,2.1908,-1.5516,-0.1139,-0.8321,1.7901,6.7454,8.5748,-0.6795,0.1037,-2.5834,1.1812,-5.8809,8.8566,0.015377,0,1698651998,77
-0.004,-1.1826,-0.2176,0.3984,1.3195,-1.2356,0.0788,-0.8906,10.5716,2.0689,-1.5242,0.2648,-0.9885,1.5155,6.3821,8.3406,-0.5226,0.4187,-2.8005,1.1152,-5.8196,8.5114,0.227458,0,1698651998,78
-0.0237,-1.3052,-0.2114,0.4534,1.2637,-1.3157,0.0898,-1.1477,10.3403,1.8908,-1.4518,0.5369,-1.1628,1.2172,6.0562,8.1168,-0.3693,0.7614,-3.0159,1.025,-5.7549,8.1824,0.397908,0,1698651998,78
-0.0435,-1.4432,-0.2047,0.5197,1.1523,-1.3975,0.1036,-1.2921,10.1237,1.7728,-1.411,0.4908,-1.3673,0.9382,5.781,7.9486,-0.2416,1.1085,-3.2395,0.9111,-5.6846,7.8942,0.53208,0,1698651998,79
-0.0628,-1.5659,-0.1974,0.5787,1.0521,-1.5165,0.1117,-1.3524,9.8194,1.7201,-1.4209,0.0844,-1.5934,0.7942,5.5335,7.8313,-0.1288,1.419,-3.4796,0.7531,-5.6509,7.6468,0.636495,0,1698651998,80
-0.0814,-1.6077,-0.1893,0.6226,1.045,-1.6353,0.1367,-1.3177,9.5253,1.6207,-1.4381,-0.4751,-1.8125,0.7709,5.3343,7.7666,-0.0335,1.6883,-3.7207,0.5705,-5.6546,7.4478,0.71764,0,1698651998,81
-0.0998,-1.6211,-0.1806,0.6851,1.0369,-1.7233,0.1877,-1.216,9.3669,1.5288,-1.4386,-1.0059,-2.0151,0.8473,5.2,7.7466,0.0269,1.8864,-3.9318,0.3568,-5.6682,7.3134,0.78068,0,1698651998,81
-0.1166,-1.6472,-0.1716,0.7535,1.0426,-1.7848,0.2349,-1.0431,9.3297,1.4753,-1.4356,-1.4881,-2.2014,1.0173,5.1317,7.7856,0.0277,2.0088,-4.0821,0.1419,-5.6987,7.2567,0.829648,0,1698651998,82
-0.1319,-1.6427,-0.1625,0.7894,1.0163,-1.8122,0.2964,-0.827,9.3957,1.4516,-1.4367,-1.8635,-2.3921,1.2419,5.1195,7.8503,-0.0074,1.9564,-4.1316,-0.037,-5.7343,7.2578,0.867682,0,1698651998,83
-0.1457,-1.6078,-0.1533,0.7904,1.007,-1.8045,0.3867,-0.5969,9.5463,1.491,-1.4358,-2.0775,-2.5965,1.5013,5.1459,7.9284,-0.0645,1.7683,-4.0626,-0.1608,-5.776,7.2851,0.897224,0,1698651998,83
-0.1581,-1.5556,-0.1442,0.7911,0.9631,-1.755,0.4662,-0.2964,9.7887,1.4865,-1.4053,-2.1159,-2.8021,1.7669,5.1971,8.0233,-0.1404,1.5378,-3.8863,-0.2217,-5.8224,7.3437,0.92017,0,1698651998,84
-0.1699,-1.4572,-0.1354,0.7894,0.8489,-1.6484,0.545,-0.0062,9.9746,1.4459,-1.351,-2.0426,-2.9942,1.9944,5.2564,8.1066,-0.2129,1.2326,-3.631,-0.2328,-5.8728,7.4504,0.937978,0,1698651998,85
-0.1806,-1.3673,-0.1273,0.8124,0.7499,-1.4838,0.6437,0.2411,10.1395,1.4489,-1.2832,-1.8826,-3.1375,2.1892,5.3252,8.178,-0.2991,0.9198,-3.3312,-0.1747,-5.8964,7.5641,0.951494,0,1698651998,85
-0.1906,-1.3303,-0.1194,0.8318,0.6731,-1.2588,0.7698,0.4951,10.1872,1.487,-1.2066,-1.6646,-3.2376,2.3408,5.4056,8.2371,-0.3874,0.6529,-3.0182,-0.0507,-5.8865,7.6748,0.960108,0,1698651998,86
-0.2006,-1.2819,-0.1118,0.832,0.5947,-1.0116,0.9164,0.6946,10.1186,1.5257,-1.1472,-1.4475,-3.3248,2.4412,5.4838,8.2663,-0.4645,0.4712,-2.7198,0.1194,-5.8635,7.7843,0.964289,0,1698651998,87
-0.2104,-1.2271,-0.1046,0.8316,0.463,-0.7412,1.0583,0.8071,10.0202,1.5295,-1.1223,-1.1851,-3.4079,2.509,5.5373,8.2603,-0.5294,0.3633,-2.4598,0.3079,-5.8181,7.852,0.966235,0,1698651998,88
-0.2197,-1.1582,-0.0975,0.8045,0.3931,-0.446,1.1932,0.8952,9.889,1.5387,-1.1235,-0.8604,-3.4852,2.5253,5.5557,8.2306,-0.5629,0.3007,-2.2417,0.4554,-5.7671,7.8856,0.969722,0,1698651998,88
-0.2285,-1.1076,-0.0909,0.7749,0.3124,-0.1425,1.3134,0.9453,9.7753,1.5228,-1.1167,-0.4905,-3.5307,2.4811,5.5435,8.1775,-0.5547,0.2684,-2.0493,0.5921,-5.7099,7.8879,0.975552,0,1698651998,89
-0.2367,-1.0434,-0.0846,0.7516,0.2361,0.1742,1.4212,0.9299,9.5998,1.5064,-1.0995,-0.1623,-3.5585,2.413,5.4944,8.1024,-0.516,0.2705,-1.8913,0.7395,-5.6462,7.8422,0.980932,0,1698651998,90
-0.2446,-0.954,-0.0778,0.7236,0.2663,0.5105,1.545,0.8797,9.4887,1.4347,-1.081,0.079,-3.3755,2.2998,5.4312,8.048,-0.4613,0.325,-1.7806,0.8825,-5.5758,7.7537,0.985186,0,1698651998,90
-0.2522,-0.8793,-0.0711,0.6961,0.2728,0.8117,1.6633,0.8185,9.4692,1.3664,-1.0531,0.2519,-3.2435,2.1926,5.3602,7.9702,-0.4008,0.415,-1.7048,0.9872,-5.4843,7.6497,0.98849,0,1698651998,91
-0.2589,-0.8099,-0.0648,0.6706,0.2445,1.0568,1.7612,0.771,9.2934,1.3914,-1.0083,0.3794,-3.3644,2.1823,5.278,7.8606,-0.3428,0.5157,-1.6552,1.0234,-5.4076,7.5534,0.991058,0,1698651998,92
-0.2645,-0.759,-0.0586,0.6616,0.2686,1.2608,1.85,0.7365,9.1796,1.3608,-0.9591,0.4759,-3.4633,2.2087,5.2025,7.7843,-0.2935,0.6211,-1.6117,1.0133,-5.3662,7.4709,0.993055,0,1698651998,92
-0.2695,-0.7028,-0.0528,0.6517,0.2737,1.4184,1.8891,0.7054,9.2732,1.2601,-0.9106,0.5355,-3.5461,2.2279,5.1355,7.7195,-0.2433,0.6996,-1.5557,0.9944,-5.3351,7.3926,0.994605,0,1698651998,93
-0.2736,-0.6291,-0.0476,0.6245,0.2128,1.5545,1.8693,0.6535,9.2964,1.1864,-0.8576,0.6065,-3.6249,2.2394,5.0773,7.6734,-0.1931,0.7102,-1.5096,0.9608,-5.3011,7.2957,0.99581,0,1698651998,94
-0.2771,-0.553,-0.0425,0.5697,0.1894,1.6635,1.8325,0.6471,9.3028,1.0768,-0.8054,0.723,-3.7228,2.2569,5.0361,7.6717,-0.1236,0.6086,-1.4764,0.8997,-5.2819,7.2218,0.996745,0,1698651998,94
-0.2806,-0.4932,-0.0381,0.4975,0.1517,1.7074,1.781,0.6646,9.4293,1.0194,-0.7588,0.8595,-3.8321,2.2632,5.0025,7.6884,-0.0405,0.4274,-1.4208,0.848,-5.2798,7.1957,0.997472,0,1698651998,95
-0.2841,-0.4363,-0.0346,0.4383,0.0073,1.7346,1.6873,0.6303,9.5446,0.9412,-0.7056,0.9817,-3.9399,2.2574,4.9853,7.7112,0.0274,0.2543,-1.3239,0.8241,-5.272,7.1767,0.998036,0,1698651998,96
-0.2869,-0.391,-0.0313,0.4116,-0.1935,1.7813,1.5514,0.6283,9.5287,0.746,-0.6413,1.0886,-4.022,2.2791,4.9988,7.7477,0.0895,0.0763,-1.1787,0.8296,-5.2737,7.1561,0.998475,0,1698651998,97
-0.289,-0.3581,-0.0277,0.4188,-0.398,1.7554,1.3913,0.5778,9.4799,0.6227,-0.5828,1.1767,-4.061,2.3259,5.0292,7.7896,0.1224,-0.0269,-1.0149,0.8614,-5.2884,7.1521,0.998815,0,1698651998,97
-0.2906,-0.3117,-0.024,0.4104,-0.5713,1.6781,1.221,0.4026,9.5246,0.5216,-0.5425,1.223,-4.0615,2.3476,5.0602,7.8358,0.1428,-0.1191,-0.8714,0.8952,-5.3228,7.1851,0.99908,0,1698651998,98
-0.2913,-0.2518,-0.0211,0.3926,-0.6727,1.5687,1.0145,0.2424,9.6604,0.4268,-0.5334,1.2385,-4.0364,2.3553,5.0838,7.9067,0.1434,-0.1728,-0.7421,0.9265,-5.3666,7.2508,0.999283,0,1698651998,99
-0.2914,-0.2103,-0.0188,0.3644,-0.7813,1.4462,0.7766,0.1239,9.7937,0.3582,-0.5254,1.2557,-3.9972,2.341,5.1245,8.0008,0.1055,-0.0977,-0.6109,0.9674,-5.417,7.3192,0.999439,0,1698651998,99
-0.2914,-0.1777,-0.0162,0.3446,-0.979,1.3596,0.5279,0.1082,9.8445,0.283,-0.5064,1.2545,-3.9446,2.3101,5.1629,8.1044,0.0666,-0.0377,-0.469,1.0256,-5.4948,7.371,0.999557,0,1698651998,0
-0.2914,-0.1425,-0.0127,0.3527,-1.2024,1.2412,0.2555,0.1739,9.8271,0.2695,-0.5121,1.2561,-3.8995,2.2952,5.2036,8.2527,0.0288,0.0174,-0.3094,1.0898,-5.5713,7.4088,0.999645,0,1698651998,1
-0.2913,-0.1022,-0.0086,0.35,-1.3572,1.0572,-0.0183,0.1965,9.8018,0.3167,-0.5251,1.266,-3.8671,2.2668,5.2484,8.4029,-0.0108,0.108,-0.1402,1.1507,-5.6473,7.4593,0.999708,0,1698651998,1
-0.2913,-0.0657,-0.0046,0.3354,-1.4323,0.8495,-0.277,0.17,9.7885,0.3673,-0.5411,1.2472,-3.8282,2.2314,5.2588,8.5054,-0.045,0.2201,0.0219,1.1982,-5.7253,7.5133,0.999751,0,1698651998,2
-0.2912,-0.0504,-0.0012,0.3339,-1.4864,0.6814,-0.5265,0.1403,9.8215,0.3599,-0.5476,1.1226,-3.7546,2.2207,5.2509,8.5562,-0.063,0.2662,0.1605,1.2142,-5.8025,7.5463,0.99969,0,1698651998,3
-0.2911,-0.0471,0.002,0.34,-1.5224,0.5363,-0.7399,0.1205,9.832,0.342,-0.5228,0.9356,-3.63,2.2378,5.2356,8.5718,-0.0455,0.2237,0.2691,1.224,-5.8512,7.5608,0.998809,0,1698651998,4
-0.291,-0.0446,0.0056,0.3592,-1.5947,0.4441,-0.8852,0.1219,9.7719,0.3413,-0.4848,0.8584,-3.472,2.2628,5.2184,8.5701,-0.0242,0.2034,0.3637,1.2595,-5.8537,7.5677,0.996422,0,1698651998,4
-0.2909,-0.0341,0.0099,0.3805,-1.6465,0.4167,-0.9657,0.1364,9.6055,0.3479,-0.4272,0.888,-3.2733,2.2654,5.1978,8.5316,-0.0221,0.2209,0.4439,1.3153,-5.8389,7.5878,0.993898,0,1698651998,5
-0.2909,-0.0265,0.0148,0.3931,-1.5386,0.3853,-0.9822,0.1573,9.3915,0.3766,-0.3577,0.9451,-3.0304,2.2319,5.1792,8.4805,-0.0086,0.2617,0.4977,1.3466,-5.8295,7.6206,0.989784,0,1698651998,6
-0.2908,-0.0351,0.0192,0.3874,-1.4104,0.3847,-0.9319,0.1775,9.3771,0.3973,-0.291,0.9902,-2.7651,2.1885,5.1551,8.4238,0.024,0.3259,0.5395,1.3421,-5.8356,7.6591,0.98083,0,1698651998,6
-0.2907,-0.0268,0.0227,0.3723,-1.3415,0.403,-0.8656,0.1862,9.4769,0.4542,-0.2221,1.004,-2.4993,2.1441,5.116,8.3658,0.0809,0.3552,0.5839,1.3177,-5.8467,7.6877,0.971876,0,1698651998,7
-0.2906,-0.0055,0.0257,0.3754,-1.2531,0.4223,-0.7852,0.2633,9.4386,0.4725,-0.1601,1.0343,-2.2503,2.086,5.0988,8.3109,0.1507,0.3712,0.6235,1.3015,-5.8468,7.7053,0.968131,0,1698651998,8
-0.2904,0.0113,0.0291,0.3854,-1.2747,0.5047,-0.6715,0.3392,9.4947,0.3395,-0.0974,1.1721,-2.0074,2.026,5.1071,8.2546,0.2185,0.3972,0.6483,1.2905,-5.8067,7.7081,0.96893,0,1698651998,9
-0.2899,0.0438,0.0331,0.4007,-1.565,0.5865,-0.5611,0.3533,9.6679,0.2447,-0.0572,1.4759,-1.7881,1.9561,5.1282,8.209,0.2857,0.4158,0.6514,1.2608,-5.7529,7.7073,0.97108,0,1698651998,9
-0.2892,0.0784,0.0368,0.3886,-1.6261,0.6032,-0.4566,0.3677,9.6672,0.2833,-0.0618,1.7801,-1.5879,1.877,5.1307,8.1915,0.3634,0.3952,0.6418,1.1843,-5.7472,7.7173,0.972509,0,1698651998,10
-0.2874,0.1108,0.0395,0.3595,-1.3361,0.6571,-0.3686,0.4778,9.5613,0.3504,-0.045,1.8979,-1.3787,1.8107,5.1003,8.1822,0.4493,0.3477,0.6361,1.0797,-5.777,7.7241,0.976051,0,1698651998,11
-0.2843,0.1573,0.0416,0.3431,-1.0409,0.7867,-0.3156,0.6859,9.3853,0.4726,-0.025,1.957,-1.1728,1.7555,5.0708,8.1782,0.54,0.2776,0.6428,0.9891,-5.7926,7.729,0.98129,0,1698651998,12
-0.2808,0.1852,0.0437,0.3059,-0.815,0.9581,-0.2787,0.8704,9.1192,0.6392,0.0135,1.8461,-0.9523,1.7041,5.0629,8.1609,0.6419,0.1592,0.6743,0.9204,-5.7818,7.722,0.985467,0,1698651998,12
-0.2781,0.1677,0.0463,0.2773,-0.7828,1.1714,-0.2517,1.0147,9.0878,0.6747,0.0655,1.5657,-0.7155,1.6577,5.0872,8.153,0.7338,0.0349,0.727,0.8875,-5.7552,7.7042,0.988712,0,1698651998,13
-0.2763,0.1462,0.0493,0.2829,-0.7628,1.3916,-0.241,1.096,9.3008,0.5259,0.0906,1.3308,-0.4906,1.6316,5.1149,8.1879,0.801,-0.0719,0.7807,0.8775,-5.7316,7.6909,0.991232,0,1698651998,14
-0.2747,0.1374,0.0521,0.264,-0.6442,1.6188,-0.2497,1.1165,9.3107,0.3596,0.1126,1.139,-0.2802,1.6179,5.137,8.2165,0.8582,-0.1745,0.8309,0.8663,-5.7213,7.673,0.99319,0,1698651998,14
-0.2732,0.1198,0.0542,0.2297,-0.5427,1.8729,-0.2633,1.1631,9.3026,0.2154,0.1238,1.094,-0.08,1.5905,5.1707,8.2698,0.9198,-0.2857,0.8733,0.8565,-5.7269,7.6597,0.99471,0,1698651998,15
-0.2721,0.0993,0.0556,0.2137,-0.4545,2.1137,-0.2798,1.1768,9.4625,0.0756,0.1444,1.1221,0.1189,1.5626,5.2043,8.3539,0.9778,-0.4172,0.896,0.8302,-5.7567,7.6935,0.995891,0,1698651998,16
-0.2714,0.0848,0.0569,0.2116,-0.369,2.3578,-0.2671,1.1511,9.5892,-0.0263,0.1851,1.1431,0.2989,1.5456,5.246,8.4641,1.0109,-0.5611,0.9026,0.7755,-5.8159,7.8045,0.996809,0,1698651998,17
-0.2712,0.067,0.0589,0.2117,-0.3119,2.6131,-0.1805,1.0809,9.7263,-0.0664,0.2679,1.1611,0.4294,1.5386,5.327,8.5639,1.0273,-0.7325,0.9247,0.7363,-5.8827,7.9658,0.997521,0,1698651998,17
-0.2706,0.0713,0.0613,0.2221,-0.2497,2.8599,-0.0655,0.9503,10.0151,-0.0984,0.3568,1.1171,0.5205,1.5543,5.4532,8.6532,1.0485,-0.9501,0.9786,0.7387,-5.9419,8.1378,0.998075,0,1698651998,18
-0.2683,0.1414,0.0633,0.2186,-0.2661,3.084,0.017,0.8493,10.2816,-0.1093,0.4004,1.0174,0.6237,1.6119,5.5972,8.7739,1.0821,-1.2068,1.0476,0.7769,-6.0009,8.3123,0.998505,0,1698651998,19
-0.263,0.2843,0.0652,0.208,-0.3675,3.2521,0.0785,0.75,10.3791,-0.0443,0.4308,0.9101,0.7609,1.6976,5.7529,8.8941,1.1209,-1.4906,1.0936,0.8335,-6.075,8.5096,0.998838,0,1698651998,19
-0.2553,0.435,0.0666,0.1964,-0.4121,3.3452,0.1348,0.5061,10.6486,0.0602,0.5056,0.8599,0.9203,1.7711,5.926,9.0358,1.1485,-1.7655,1.1115,0.8861,-6.1482,8.738,0.999098,0,1698651998,20
-0.2459,0.583,0.0674,0.1598,-0.3608,3.3663,0.1922,0.1154,10.9845,0.2568,0.6369,0.8687,1.1038,1.795,6.1029,9.1838,1.1665,-2.0021,1.1407,0.971,-6.2197,8.9613,0.999299,0,1698651998,21
-0.2345,0.7258,0.0678,0.1233,-0.2595,3.3436,0.2896,-0.3193,11.1215,0.5445,0.8157,0.8875,1.2906,1.7735,6.285,9.3402,1.1405,-2.1842,1.1889,1.1145,-6.2733,9.1738,0.999456,0,1698651998,22
-0.2231,0.788,0.0678,0.0903,-0.3342,3.2407,0.4274,-0.7874,11.1686,0.8286,1.0261,0.9055,1.4758,1.7274,6.4742,9.5101,1.0955,-2.2898,1.2553,1.2818,-6.2939,9.3667,0.999577,0,1698651998,22
-0.2131,0.7808,0.0676,0.0658,-0.3394,3.0329,0.5694,-1.2669,11.1663,1.1287,1.2304,0.9279,1.6835,1.6368,6.6728,9.646,1.07,-2.2909,1.3172,1.4374,-6.3144,9.5264,0.999672,0,1698651998,23
-0.2048,0.74,0.0674,0.0433,-0.1637,2.748,0.6925,-1.6784,11.1844,1.3628,1.4087,0.9411,1.9164,1.5044,6.854,9.7434,1.0425,-2.1724,1.3371,1.5284,-6.3164,9.6581,0.999745,0,1698651998,24
-0.1986,0.681,0.0662,-0.0083,-0.0272,2.375,0.835,-1.8994,10.8809,1.5642,1.5574,0.9369,2.1613,1.3436,7.0007,9.7858,1.0126,-1.9236,1.3193,1.5472,-6.2859,9.7461,0.999802,0,1698651998,24
-0.1943,0.6123,0.0627,-0.091,0.1385,1.9702,0.9636,-1.9957,10.5083,1.7161,1.6721,0.8535,2.4137,1.1714,7.1141,9.7509,0.9962,-1.5914,1.2859,1.5131,-6.2198,9.7802,0.999846,0,1698651998,25
-0.1919,0.5134,0.0557,-0.2439,0.28,1.5664,1.031,-2.004,10.6142,1.7686,1.7322,0.6703,2.66,1.0411,7.1706,9.6099,1.0031,-1.238,1.2506,1.4318,-6.0975,9.7347,0.99988,0,1698651999,26
-0.1911,0.4052,0.0467,-0.4567,0.2467,1.2058,1.057,-1.857,10.7764,1.8334,1.7218,0.4888,2.8658,0.9981,7.1557,9.3742,1.0212,-0.8705,1.2189,1.3257,-5.9066,9.6016,0.999907,0,1698651999,27
-0.1908,0.3134,0.0358,-0.6787,0.2447,0.9155,1.0678,-1.6083,10.8591,1.8511,1.6787,0.4441,3.0333,1.019,7.0931,9.091,1.0497,-0.5119,1.1909,1.165,-5.6621,9.4135,0.999928,0,1698651999,27
-0.1897,0.2787,0.0226,-0.9053,0.4622,0.7037,1.0643,-1.2241,10.6592,1.971,1.6206,0.5278,3.218,1.0382,7.0033,8.7277,1.0839,-0.1898,1.1631,0.9147,-5.391,9.149,0.999944,0,1698651999,28
-0.1869,0.2951,0.0079,-1.0981,0.4914,0.6738,0.9798,-0.5956,10.1394,2.0703,1.5226,0.6218,3.456,0.9999,6.8774,8.2891,1.1342,0.0467,1.1501,0.5913,-5.0735,8.8131,0.999956,0,1698651999,29
-0.1822,0.3529,-0.0081,-1.2469,0.3299,0.7204,0.8127,-0.0818,9.8672,1.9851,1.4039,0.723,3.7244,0.9245,6.7136,7.8491,1.2083,0.1546,1.1698,0.234,-4.7301,8.4432,0.999966,0,1698651999,29
-0.176,0.4526,-0.0246,-1.3867,0.3349,0.7285,0.6233,0.0953,9.6979,1.9741,1.2955,0.8459,3.9806,0.837,6.5206,7.4383,1.2837,0.1378,1.2158,-0.1042,-4.4083,8.0591,0.999974,0,1698651999,30
-0.1686,0.5166,-0.0415,-1.5225,0.4709,0.8081,0.4327,0.2806,9.3447,2.039,1.1857,0.978,4.2111,0.737,6.3283,7.0848,1.332,-0.0184,1.2839,-0.4201,-4.1276,7.7214,0.99998,0,1698651999,31
-0.1601,0.5677,-0.0583,-1.5671,0.5655,0.9713,0.2267,0.5141,9.0756,2.0782,1.109,1.0754,4.4208,0.6323,6.1596,6.8172,1.3398,-0.3204,1.3632,-0.692,-3.8992,7.4589,0.999984,0,1698651999,32
-0.1516,0.6405,-0.075,-1.5771,0.6474,1.1263,0.0036,0.6289,8.9481,2.08,1.1482,1.1333,4.5923,0.5438,6.0385,6.6595,1.3262,-0.7731,1.4717,-0.9018,-3.7675,7.278,0.999988,0,1698651999,32
-0.1432,0.6695,-0.0926,-1.6362,0.6557,1.313,-0.2319,0.6344,8.9312,1.9983,1.315,1.2157,4.6956,0.4822,6.0117,6.6312,1.2687,-1.2781,1.6386,-1.0099,-3.7635,7.2011,0.99999,0,1698651999,33
-0.1346,0.6938,-0.1103,-1.7027,0.5121,1.505,-0.471,0.5657,9.127,1.9044,1.5307,1.3317,4.7111,0.4302,6.0709,6.6979,1.1611,-1.7505,1.8714,-0.955,-3.7928,7.2341,0.999993,0,1698651999,34
-0.1264,0.7304,-0.127,-1.7248,0.3324,1.6285,-0.6755,0.2598,9.4887,1.824,1.7502,1.4882,4.6319,0.4047,6.1735,6.8106,1.0255,-2.1472,2.1365,-0.7586,-3.83,7.3675,0.999994,0,1698651999,35
-0.1188,0.7422,-0.1437,-1.699,0.1161,1.7296,-0.8778,-0.2042,9.9334,1.684,2.0102,1.6644,4.4861,0.421,6.331,6.9549,0.8502,-2.3915,2.3945,-0.4783,-3.9123,7.5814,0.999996,0,1698651999,35
-0.1109,0.7473,-0.1604,-1.6703,-0.0859,1.8217,-1.0656,-0.6776,10.3946,1.5207,2.2743,1.7092,4.3609,0.4251,6.5305,7.1273,0.6315,-2.4798,2.6153,-0.1767,-4.0088,7.8601,0.999997,0,1698651999,36
-0.1024,0.772,-0.1768,-1.6401,-0.1653,1.8388,-1.2149,-1.1103,10.6098,1.4353,2.4931,1.5923,4.2952,0.4106,6.7556,7.2909,0.3994,-2.4248,2.7689,0.1162,-4.1001,8.1539,0.999997,0,1698651999,37
-0.0937,0.8196,-0.1926,-1.5992,-0.1222,1.7702,-1.3325,-1.3999,10.5041,1.4217,2.6306,1.3838,4.2398,0.4312,6.9678,7.4517,0.185,-2.2219,2.8567,0.393,-4.2237,8.4301,0.999998,0,1698651999,37
-0.0851,0.8187,-0.2074,-1.5433,-0.0409,1.647,-1.4128,-1.6457,10.3145,1.4373,2.6574,1.1027,4.1764,0.5121,7.1347,7.6102,-0.002,-1.9262,2.8865,0.6252,-4.3742,8.6907,0.999998,0,1698651999,38
-0.0766,0.7812,-0.2214,-1.4783,-0.029,1.4721,-1.4897,-1.8609,10.1144,1.4729,2.6083,0.7786,4.1033,0.6506,7.2714,7.7267,-0.1378,-1.6284,2.8722,0.7871,-4.501,8.9043,0.999999,0,1698651999,39
-0.0688,0.7679,-0.2346,-1.3883,0.0212,1.2476,-1.5392,-2.0497,10.0113,1.5013,2.4593,0.2491,4.0559,0.7964,7.3542,7.8088,-0.2255,-1.3246,2.8312,0.8963,-4.5888,9.0349,0.999998,0,1698651999,40
-0.0622,0.7368,-0.2464,-1.3126,0.0824,0.9872,-1.5802,-2.1766,9.9379,1.5312,2.2133,-0.5201,4.0497,0.9578,7.3951,7.8903,-0.2714,-1.0316,2.7883,0.9634,-4.6179,9.0824,0.999986,0,1698651999,40
-0.0563,0.6858,-0.2576,-1.2736,0.1213,0.7116,-1.6129,-2.2308,9.8505,1.5341,1.9813,-1.1738,4.0305,1.2007,7.4052,7.9394,-0.2874,-0.7912,2.7695,0.9883,-4.5914,9.0473,0.999887,0,1698651999,41
-0.0513,0.6425,-0.2684,-1.2697,0.2436,0.4311,-1.6391,-2.27,9.8282,1.4415,1.7857,-1.5222,3.9908,1.4672,7.3711,7.8891,-0.3007,-0.6173,2.789,0.9815,-4.5262,8.9397,0.997058,0,1698651999,42
-0.0477,0.5885,-0.278,-1.24,0.3259,0.1416,-1.6868,-2.2164,9.781,1.3505,1.6006,-1.5977,3.9532,1.6929,7.3036,7.7605,-0.3332,-0.5077,2.8356,0.9839,-4.4175,8.7919,0.94978,0,1698651999,42
-0.045,0.5207,-0.2868,-1.1801,0.3667,-0.1701,-1.734,-2.1497,9.7534,1.3208,1.432,-1.5225,3.9333,1.8591,7.2219,7.5868,-0.3858,-0.4627,2.8983,1.0021,-4.2738,8.5996,0.803497,0,1698651999,43
-0.0425,0.4692,-0.2958,-1.1375,0.453,-0.4549,-1.7818,-2.0915,9.7315,1.2261,1.2628,-1.3815,3.9409,1.9908,7.1442,7.4121,-0.4444,-0.4559,2.9512,1.004,-4.1309,8.3757,0.61566,0,1698651999,44
-0.0398,0.4325,-0.3047,-1.1136,0.5643,-0.6718,-1.8444,-1.9501,9.6174,1.11,1.1007,-1.1057,3.9067,2.052,7.0516,7.2611,-0.5062,-0.4352,2.9787,1.0075,-4.0033,8.1785,0.462307,0,1698651999,45
-0.0367,0.4014,-0.3135,-1.0735,0.609,-0.8463,-1.911,-1.7264,9.4582,1.019,0.9458,-0.8754,3.7992,2.0282,6.9112,7.1145,-0.573,-0.3757,2.9779,1.033,-3.9095,8.058,0.342545,0,1698651999,45
-0.0339,0.3721,-0.3212,-0.985,0.6582,-0.9894,-1.9303,-1.5331,9.3012,0.9866,0.8186,-0.6641,3.6493,2.0134,6.7609,7.0067,-0.6401,-0.2945,2.9423,1.0576,-3.853,7.9569,0.214737,0,1698651999,46
-0.0317,0.3392,-0.3278,-0.8923,0.6428,-1.0921,-1.9019,-1.349,9.2634,0.9983,0.7207,-0.4071,3.4919,2.006,6.6782,6.9238,-0.671,-0.2119,2.8908,1.1,-3.8364,7.896,0.045737,0,1698651999,47
-0.0295,0.3237,-0.3337,-0.8088,0.4765,-1.1983,-1.8815,-1.286,9.199,0.9667,0.6106,-0.3105,3.3569,1.9908,6.6466,6.8282,-0.6617,-0.1451,2.821,1.1551,-3.8381,7.8954,-0.149787,0,1698651999,47
-0.0268,0.3199,-0.3385,-0.7476,0.2843,-1.3191,-1.8887,-1.3014,9.0838,0.9152,0.5046,-0.3319,3.2307,1.9689,6.6228,6.7133,-0.5855,-0.1623,2.7361,1.1757,-3.8398,7.883,-0.33456,0,1698651999,48
-0.0226,0.35,-0.3433,-0.6928,0.066,-1.4164,-1.9079,-1.1937,9.0874,0.8285,0.447,-0.2555,3.1088,1.9879,6.6086,6.6023,-0.5221,-0.1842,2.659,1.2048,-3.8462,7.9027,-0.482478,0,1698651999,49
-0.017,0.4307,-0.3477,-0.6117,-0.0413,-1.4979,-1.8717,-1.1942,9.0425,0.7319,0.4091,-0.1903,2.9988,2.0356,6.5893,6.5357,-0.5188,-0.1551,2.5685,1.2498,-3.8506,7.9678,-0.597972,0,1698651999,50
-0.0113,0.4754,-0.3506,-0.503,-0.0728,-1.5509,-1.7438,-1.2566,9.0224,0.6543,0.3617,-0.1575,2.8997,2.0635,6.5804,6.5187,-0.5171,-0.1156,2.4582,1.2894,-3.8588,8.0389,-0.687725,0,1698651999,50
-0.0057,0.4841,-0.3515,-0.3924,-0.1278,-1.5854,-1.5499,-1.2585,9.0004,0.6105,0.2951,-0.1883,2.7946,2.0759,6.5893,6.5167,-0.509,-0.0805,2.3384,1.338,-3.8478,8.0679,-0.757444,0,1698651999,51
0,0.497,-0.3513,-0.3009,-0.2132,-1.5967,-1.3542,-1.229,9.0199,0.5124,0.1769,-0.3596,2.6679,2.09,6.5938,6.497,-0.4933,-0.0533,2.2146,1.3862,-3.8032,8.0597,-0.811597,0,1698651999,52
0.006,0.525,-0.3512,-0.2463,-0.3324,-1.6252,-1.1851,-1.2604,9.0818,0.4063,0.0374,-0.4356,2.5004,2.0941,6.5853,6.4728,-0.4811,-0.0015,2.0981,1.4442,-3.7571,8.0619,-0.853661,0,1698651999,53
0.0119,0.5453,-0.3511,-0.2029,-0.4241,-1.6899,-1.0205,-1.3278,9.0999,0.3511,-0.1025,-0.475,2.3021,2.0846,6.5803,6.4637,-0.4691,0.0609,1.9871,1.512,-3.7199,8.069,-0.886334,0,1698651999,53
0.0173,0.5521,-0.3509,-0.1414,-0.549,-1.735,-0.8467,-1.2943,9.1595,0.2778,-0.247,-0.5857,2.0816,2.0981,6.5817,6.4598,-0.4657,0.1315,1.8779,1.5716,-3.6857,8.0579,-0.911712,0,1698651999,54
0.0224,0.5486,-0.3505,-0.074,-0.6861,-1.7812,-0.6733,-1.202,9.2613,0.1476,-0.3882,-0.6888,1.8362,2.1455,6.578,6.4362,-0.4563,0.2076,1.7717,1.6224,-3.6439,8.0415,-0.931424,0,1698651999,55
0.0269,0.5158,-0.3495,-0.0123,-0.8701,-1.817,-0.5369,-1.1806,9.4166,0.0085,-0.5183,-0.7424,1.5732,2.2128,6.5909,6.4088,-0.4378,0.2847,1.6612,1.6841,-3.5908,8.0534,-0.946735,0,1698651999,55
0.0307,0.4816,-0.3476,0.0409,-1.1357,-1.8517,-0.3892,-1.1953,9.6307,-0.052,-0.6484,-0.7619,1.2973,2.2717,6.6408,6.4143,-0.4406,0.3795,1.5353,1.7565,-3.5506,8.0947,-0.958628,0,1698651999,56
0.0342,0.4404,-0.3447,0.0969,-1.3472,-1.8871,-0.2208,-1.201,9.6731,0.0117,-0.7809,-0.7523,1.0293,2.3336,6.7124,6.4428,-0.4768,0.5162,1.3838,1.7848,-3.5278,8.1399,-0.967865,0,1698651999,57
0.0377,0.4035,-0.3411,0.1668,-1.4671,-1.9061,-0.0338,-1.2183,9.5191,0.1539,-0.8975,-0.7321,0.7786,2.4088,6.7765,6.501,-0.5075,0.6342,1.1971,1.7586,-3.5327,8.1704,-0.97504,0,1698651999,58
0.041,0.3616,-0.3367,0.2404,-1.4793,-1.8519,0.1601,-1.2481,9.4172,0.2532,-1.0017,-0.753,0.5488,2.4868,6.8325,6.5952,-0.5203,0.7072,0.9813,1.7166,-3.5817,8.2203,-0.980613,0,1698651999,58
0.0443,0.3276,-0.3314,0.3214,-1.3933,-1.7518,0.2774,-1.2639,9.361,0.404,-1.0826,-0.7966,0.3491,2.5706,6.8851,6.6881,-0.5387,0.7861,0.7387,1.6765,-3.6614,8.2963,-0.984941,0,1698651999,59
0.0476,0.3114,-0.3259,0.3818,-1.341,-1.6919,0.3336,-1.1466,9.277,0.561,-1.1216,-0.827,0.1727,2.651,6.9272,6.7627,-0.5675,0.8661,0.46,1.6358,-3.7579,8.3964,-0.988303,0,1698651999,60
0.0515,0.3048,-0.321,0.4055,-1.228,-1.5841,0.3994,-1.0018,9.1591,0.5974,-1.1127,-0.8378,0.0203,2.7353,6.9672,6.8265,-0.595,0.9214,0.131,1.5523,-3.8779,8.5001,-0.990915,0,1698651999,60
0.0565,0.34,-0.3166,0.4203,-0.9016,-1.4372,0.4565,-0.9944,9.0298,0.5736,-1.0495,-0.8241,-0.0819,2.8179,7.0049,6.8924,-0.6138,0.9362,-0.2345,1.3997,-3.9966,8.5908,-0.992943,0,1698651999,61
0.0622,0.3915,-0.312,0.4191,-0.4912,-1.3104,0.5162,-1.0124,8.8465,0.5789,-0.9612,-0.9097,-0.1203,2.8695,7.0356,6.9577,-0.6224,0.8949,-0.3726,1.2096,-4.0928,8.7126,-0.994519,0,1698651999,62
0.0673,0.4085,-0.3082,0.3977,-0.1341,-1.1676,0.6179,-1.0301,8.898,0.5346,-0.8952,-1.0495,-0.111,2.8914,7.0896,7.025,-0.624,0.7929,-0.5004,1.0414,-4.157,8.8232,-0.995741,0,1698651999,63
0.072,0.4275,-0.3059,0.3485,0.1407,-1.0354,0.7089,-1.1516,9.1659,0.428,-0.8414,-1.0848,-0.085,2.9132,7.1572,7.0781,-0.6235,0.649,-0.799,0.9005,-4.1882,8.8909,-0.996662,0,1698651999,63
0.0772,0.4589,-0.3047,0.2795,0.3234,-0.9463,0.7531,-1.3218,9.3449,0.3202,-0.7519,-1.0543,-0.0648,2.9085,7.2321,7.0936,-0.6232,0.486,-1.0071,0.7893,-4.205,8.9267,-0.997193,0,1698651999,64
0.082,0.4434,-0.3044,0.2193,0.3784,-0.9043,0.796,-1.4118,9.5478,0.1345,-0.6858,-0.9342,-0.0585,2.8776,7.3131,7.1306,-0.6271,0.3211,-1.1398,0.7448,-4.2116,8.9481,-0.997028,0,1698651999,65
0.0851,0.3712,-0.3045,0.1712,0.4416,-0.9442,0.8677,-1.5384,9.8385,-0.0765,-0.6958,-0.795,-0.0749,2.8509,7.3663,7.1879,-0.6422,0.1657,-1.1977,0.7656,-4.1911,8.965,-0.995874,0,1698651999,65
0.0868,0.301,-0.3046,0.1329,0.4984,-1.0579,0.9438,-1.737,10.021,-0.2802,-0.7419,-0.7601,-0.1217,2.8278,7.397,7.2108,-0.67,0.0408,-1.2111,0.8547,-4.1455,8.95,-0.994637,0,1698651999,66
0.0883,0.2848,-0.3048,0.1026,0.5058,-1.2126,1.0318,-1.8757,9.9139,-0.4844,-0.8015,-0.814,-0.1777,2.8288,7.396,7.2095,-0.7104,-0.0435,-1.2224,0.951,-4.1127,8.9239,-0.994616,0,1698651999,67
0.0908,0.3048,-0.3051,0.0792,0.544,-1.4291,1.1054,-1.9153,9.6022,-0.6048,-0.87,-0.9496,-0.2118,2.8421,7.3773,7.2035,-0.7554,-0.1123,-1.2618,1.0179,-4.1137,8.9294,-0.995513,0,1698651999,68
0.0941,0.3229,-0.3051,0.0615,0.6691,-1.6978,1.1608,-1.953,9.3708,-0.682,-0.9412,-1.1444,-0.211,2.8442,7.3721,7.2397,-0.7938,-0.1718,-1.3282,1.0732,-4.1375,8.9675,-0.996481,0,1698651999,68
0.0972,0.311,-0.305,0.0682,0.9179,-2.0087,1.2345,-2.0224,9.3752,-0.7289,-1.0262,-1.3912,-0.1857,2.8434,7.3894,7.3512,-0.8491,-0.1694,-1.3977,1.134,-4.1977,9.0223,-0.997261,0,1698651999,69
0.0999,0.2859,-0.3047,0.0866,1.0635,-2.3108,1.2943,-1.9832,9.7042,-0.8131,-1.1468,-1.7379,-0.1848,2.9003,7.4166,7.5047,-0.9186,-0.1496,-1.4381,1.2315,-4.2914,9.0541,-0.99787,0,1698651999,70
0.1018,0.2607,-0.3041,0.0934,1.0896,-2.5931,1.3041,-1.8358,10.2866,-0.8695,-1.2729,-2.0677,-0.2565,3.0399,7.4168,7.6752,-0.9878,-0.1172,-1.4438,1.3604,-4.4217,9.0543,-0.998345,0,1698651999,71
0.1027,0.207,-0.3021,0.1579,1.1099,-2.8312,1.2462,-1.613,10.7782,-0.8071,-1.3989,-2.2328,-0.3872,3.1983,7.406,7.8193,-1.0356,-0.0477,-1.462,1.4824,-4.5874,9.0838,-0.998715,0,1698651999,71
0.1028,0.1586,-0.2964,0.3219,1.1692,-2.9624,1.1721,-1.34,10.8134,-0.5754,-1.5386,-2.2919,-0.5126,3.3079,7.416,7.9356,-1.0558,0.0752,-1.5348,1.5339,-4.7665,9.1594,-0.999002,0,1698651999,72
0.1025,0.106,-0.2871,0.4972,1.3882,-3.0174,1.1351,-1.0004,10.5684,-0.103,-1.6615,-2.2935,-0.5929,3.3565,7.4391,8.1107,-1.0765,0.2637,-1.6715,1.4977,-4.9503,9.2686,-0.999225,0,1698651999,73
0.102,0.0568,-0.2764,0.6546,1.6699,-2.9485,1.0927,-0.6036,10.3896,0.3942,-1.7587,-2.2914,-0.6434,3.341,7.446,8.3538,-1.0875,0.3913,-1.8689,1.414,-5.1452,9.3919,-0.999397,0,1698651999,73
0.1018,0.0286,-0.2658,0.7587,2.0319,-2.7757,0.9958,-0.2852,10.518,0.8786,-1.8445,-2.305,-0.7039,3.2975,7.4314,8.6119,-1.0875,0.4103,-2.1168,1.3049,-5.3864,9.5059,-0.999524,0,1698651999,74
0.101,-0.0097,-0.2563,0.7943,2.3071,-2.5435,0.8132,0.0786,10.5384,1.5088,-1.9196,-2.2961,-0.7952,3.2767,7.3957,8.8337,-1.0671,0.2733,-2.3963,1.1726,-5.679,9.6136,-0.99959,0,1698651999,75
0.0982,-0.0932,-0.2486,0.77,2.5558,-2.1646,0.6271,0.4515,10.528,1.9869,-1.9796,-2.2363,-0.9019,3.2785,7.3503,8.9996,-1.0111,0.0289,-2.6679,1.0589,-5.9694,9.6992,-0.998935,0,1698651999,76
0.0924,-0.2376,-0.243,0.703,2.7601,-1.6785,0.4629,0.7134,10.919,2.1387,-2.0246,-2.0739,-1.0121,3.3067,7.2728,9.0691,-0.9174,-0.2061,-2.8908,1.0095,-6.1834,9.7029,-0.987902,0,1698651999,76
0.0827,-0.4105,-0.2382,0.6677,2.7142,-1.2174,0.3141,0.8417,11.3183,2.1906,-2.0305,-1.7458,-1.1198,3.3034,7.1378,9.0638,-0.8122,-0.3997,-3.0639,1.01,-6.2882,9.5854,-0.912644,0,1698651999,77
0.0688,-0.6494,-0.2331,0.6293,2.6351,-0.8124,0.2351,0.7628,11.4091,2.2136,-1.9985,-1.1987,-1.2086,3.1985,6.9645,9.0182,-0.7391,-0.516,-3.1975,1.0101,-6.3044,9.3878,-0.647854,0,1698651999,78
0.0517,-0.9295,-0.2281,0.5845,2.4425,-0.4698,0.1874,0.5514,11.153,2.1983,-2.0008,-0.6178,-1.3048,2.9745,6.7195,8.8836,-0.6762,-0.6072,-3.2834,0.9997,-6.2498,9.1055,-0.286408,0,1698651999,78
0.0336,-1.117,-0.2233,0.5766,2.0431,-0.2598,0.0958,0.1997,10.9824,2.1028,-2.0479,-0.147,-1.4554,2.6515,6.421,8.6626,-0.6045,-0.6899,-3.3169,0.9935,-6.1228,8.7283,0.000697,0,1698651999,79
0.0142,-1.2628,-0.2177,0.6101,1.7142,-0.1973,-0.0213,-0.1891,10.8812,1.9174,-2.0801,0.2528,-1.6721,2.2987,6.0707,8.4016,-0.5172,-0.738,-3.3122,0.997,-5.9559,8.3086,0.223784,0,1698651999,80
-0.006,-1.3896,-0.2114,0.634,1.6436,-0.2008,-0.0697,-0.4823,10.4671,1.8666,-2.0856,0.5684,-1.9256,1.9659,5.6931,8.1564,-0.4306,-0.6526,-3.3026,1.0171,-5.7865,7.877,0.397076,0,1698651999,81
-0.0268,-1.4755,-0.2045,0.6409,1.5752,-0.171,-0.0672,-0.6267,9.9343,1.9013,-2.0821,0.7522,-2.1617,1.6552,5.3586,7.9622,-0.3583,-0.4883,-3.3412,1.0209,-5.6354,7.4812,0.531685,0,1698651999,81
-0.0477,-1.5873,-0.1966,0.6666,1.4368,-0.1863,-0.0883,-0.7909,9.5649,1.8464,-2.0565,0.6692,-2.3724,1.3771,5.0884,7.8347,-0.2833,-0.3198,-3.4444,0.9648,-5.5487,7.2023,0.636242,0,1698651999,82
-0.0669,-1.6354,-0.1886,0.7162,1.2586,-0.3268,-0.1627,-0.9706,9.3913,1.7233,-2.0246,0.3669,-2.5957,1.1827,4.9028,7.7869,-0.2337,-0.0602,-3.5775,0.8614,-5.5434,7.0541,0.717456,0,1698651999,83
-0.0844,-1.6415,-0.1806,0.7976,1.0281,-0.5161,-0.2715,-1.0663,9.4055,1.5489,-2.0041,-0.0912,-2.8475,1.122,4.7929,7.8027,-0.1857,0.1652,-3.7191,0.7362,-5.5947,6.9986,0.780534,0,1698651999,83
-0.1009,-1.689,-0.1719,0.8768,0.9292,-0.7347,-0.3535,-1.1402,9.6497,1.3917,-1.9524,-0.6523,-3.1087,1.1976,4.7438,7.8762,-0.1408,0.3216,-3.8189,0.6196,-5.7013,7.0418,0.829521,0,1698651999,84
-0.1182,-1.7509,-0.1626,0.9203,0.8354,-0.9693,-0.4036,-1.1114,9.9184,1.3199,-1.8577,-1.1606,-3.3653,1.3675,4.7677,7.9931,-0.1451,0.5454,-3.824,0.5297,-5.8538,7.1734,0.867557,0,1698651999,85
-0.1354,-1.7796,-0.1529,0.9326,0.7514,-1.1855,-0.399,-0.9734,10.183,1.3026,-1.7381,-1.5631,-3.5995,1.5887,4.8579,8.1302,-0.1783,0.7839,-3.747,0.416,-6.0196,7.3618,0.897086,0,1698651999,86
-0.1524,-1.7993,-0.1424,0.9672,0.7109,-1.3356,-0.3196,-0.7331,10.469,1.2721,-1.5754,-1.8033,-3.7823,1.8396,4.9844,8.276,-0.2253,0.9249,-3.5884,0.3009,-6.1695,7.5706,0.920006,0,1698651999,86
-0.1697,-1.8295,-0.1317,1.0074,0.6606,-1.3925,-0.1872,-0.4299,10.5973,1.2842,-1.3765,-1.8356,-3.9064,2.0984,5.1289,8.4095,-0.2738,0.9364,-3.3484,0.2543,-6.2942,7.7838,0.937728,0,1698651999,87
-0.1863,-1.7703,-0.1212,1.0207,0.6267,-1.3575,-0.0043,-0.1417,10.5553,1.3291,-1.188,-1.6673,-3.9627,2.3165,5.2662,8.5022,-0.2953,0.8141,-3.0666,0.2822,-6.3665,7.9708,0.951359,0,1698651999,88
-0.2021,-1.6424,-0.1108,1.0402,0.5357,-1.2536,0.2052,0.1721,10.4107,1.3966,-1.0262,-1.3482,-3.9562,2.4656,5.3841,8.5524,-0.3,0.6492,-2.7803,0.3812,-6.3628,8.0944,0.961335,0,1698651999,88
-0.2162,-1.5228,-0.1016,1.0361,0.4248,-1.074,0.4164,0.4932,10.254,1.4571,-0.8962,-0.9452,-3.9128,2.5707,5.4586,8.5646,-0.2943,0.4947,-2.5171,0.4979,-6.3131,8.1423,0.967888,0,1698651999,89
-0.2287,-1.4322,-0.0928,1.0139,0.3601,-0.8306,0.6197,0.7634,10.0877,1.4998,-0.7928,-0.5291,-3.8569,2.6104,5.4664,8.5158,-0.2635,0.3458,-2.2939,0.6059,-6.2219,8.1189,0.972755,0,1698651999,90
-0.2407,-1.3822,-0.0837,0.9819,0.3618,-0.5222,0.8236,0.9458,9.8043,1.5305,-0.6971,-0.1548,-3.7965,2.5838,5.4199,8.4143,-0.2063,0.2198,-2.1111,0.7251,-6.0914,8.0317,0.977512,0,1698651999,91
-0.2521,-1.3166,-0.0742,0.9457,0.421,-0.1327,1.0399,1.0767,9.4917,1.5576,-0.6304,0.1436,-3.7265,2.5351,5.3297,8.3339,-0.1363,0.1271,-1.9658,0.8403,-5.9385,7.9143,0.982109,0,1698651999,91
-0.2624,-1.2387,-0.0647,0.9533,0.4227,0.2934,1.2454,1.1557,9.2705,1.507,-0.5829,0.3958,-3.6491,2.4793,5.2322,8.2169,-0.0564,0.073,-1.8546,0.9505,-5.785,7.7803,0.986064,0,1698651999,92
-0.2711,-1.1296,-0.056,0.9417,0.3934,0.7258,1.4162,1.1682,9.1442,1.4007,-0.5323,0.642,-3.5797,2.4533,5.1506,8.0183,0.0295,0.0685,-1.7742,1.0646,-5.65,7.6145,0.989173,0,1698651999,93
-0.2781,-1.0135,-0.0483,0.9187,0.3961,1.1597,1.5837,1.1813,9.1556,1.295,-0.4956,0.8137,-3.5377,2.4088,5.0858,7.8392,0.0997,0.0939,-1.7151,1.1377,-5.4978,7.4534,0.99159,0,1698651999,94
-0.284,-0.9266,-0.041,0.894,0.3634,1.5674,1.7539,1.1632,9.2431,1.2154,-0.4552,0.8805,-3.5357,2.3422,5.0184,7.6861,0.155,0.0856,-1.6624,1.1446,-5.3358,7.3119,0.993468,0,1698651999,94
-0.2893,-0.8293,-0.0339,0.823,0.2834,1.9395,1.8997,1.1341,9.3757,1.1381,-0.4016,0.9265,-3.57,2.3239,4.9463,7.5496,0.2065,0.0467,-1.5917,1.1293,-5.2075,7.1844,0.994926,0,1698651999,95
-0.2937,-0.7324,-0.0272,0.7743,0.1752,2.2625,2.0292,1.1052,9.3552,1.1298,-0.3685,1.0056,-3.6281,2.3508,4.9055,7.4786,0.2304,0.0302,-1.5018,1.1394,-5.1175,7.0763,0.996059,0,1698651999,96
-0.2971,-0.6388,-0.0208,0.7309,0.1389,2.5195,2.1186,1.0105,9.3562,1.1406,-0.3513,1.0995,-3.6912,2.4094,4.8725,7.4387,0.231,0.0224,-1.386,1.1496,-5.0618,7.0011,0.996939,0,1698651999,96
-0.3,-0.5581,-0.0154,0.672,0.011,2.7846,2.114,0.9669,9.4654,0.9334,-0.3329,1.2474,-3.7436,2.4571,4.8604,7.4248,0.2135,-0.016,-1.2432,1.1466,-5.0051,6.9529,0.997622,0,1698651999,97
-0.3024,-0.4814,-0.0108,0.6069,-0.286,3.0255,2.0107,0.9803,9.5246,0.6577,-0.3203,1.4006,-3.7647,2.4983,4.8607,7.449,0.1702,-0.0765,-1.07,1.1512,-4.9421,6.9074,0.998153,0,1698652000,98
-0.3041,-0.3938,-0.0063,0.5417,-0.3387,3.1522,1.8299,0.9114,9.5567,0.4843,-0.3104,1.5435,-3.7444,2.5213,4.8805,7.5042,0.1629,-0.1422,-0.8844,1.2199,-4.9774,6.9172,0.998566,0,1698652000,99
-0.3048,-0.288,-0.0026,0.4853,-0.3403,3.184,1.5633,0.8015,9.5685,0.3925,-0.3105,1.6979,-3.7014,2.5071,4.9335,7.581,0.2161,-0.2308,-0.7428,1.3268,-5.0772,6.9703,0.998886,0,1698652000,99
-0.3048,-0.205,0,0.4296,-0.6339,3.1551,1.225,0.6784,9.5656,0.2915,-0.3327,1.7838,-3.6229,2.503,4.9674,7.6609,0.323,-0.3737,-0.643,1.3593,-5.124,6.9776,0.999135,0,1698652000,0
-0.3048,-0.161,0.0024,0.3999,-0.9847,3.0704,0.8609,0.5272,9.5442,0.1734,-0.3712,1.859,-3.5116,2.5092,4.966,7.7613,0.4111,-0.4847,-0.5468,1.3592,-5.1574,6.9592,0.999328,0,1698652000,1
-0.3047,-0.1247,0.0051,0.3887,-1.281,2.9186,0.4911,0.3469,9.535,0.0898,-0.4174,2.0308,-3.4123,2.5033,4.928,7.8814,0.443,-0.5573,-0.4524,1.3837,-5.2152,6.934,0.999478,0,1698652000,1
-0.3046,-0.0948,0.0085,0.397,-1.5069,2.7376,0.1323,0.1433,9.5134,-0.0054,-0.4557,2.2136,-3.3105,2.4848,4.898,7.9969,0.466,-0.635,-0.3536,1.4262,-5.2846,6.9104,0.999594,0,1698652000,2
-0.3045,-0.0741,0.0127,0.4056,-1.6389,2.5109,-0.1992,-0.0416,9.4496,-0.0309,-0.4796,2.273,-3.1531,2.4579,4.8584,8.0498,0.5009,-0.7797,-0.2623,1.4328,-5.3533,6.8869,0.999685,0,1698652000,3
-0.3044,-0.0581,0.0167,0.4072,-1.6724,2.2164,-0.507,-0.1886,9.3945,0.0497,-0.5314,2.2381,-2.9523,2.4346,4.7987,8.0988,0.5578,-0.9663,-0.1582,1.4229,-5.4181,6.877,0.999755,0,1698652000,4
-0.3043,-0.0327,0.02,0.4005,-1.7478,1.9417,-0.8057,-0.308,9.3311,0.0704,-0.5537,2.1343,-2.7359,2.4082,4.7879,8.1784,0.6038,-1.0558,0.013,1.4631,-5.4781,6.9041,0.99981,0,1698652000,4
-0.3043,-0.019,0.0228,0.3737,-1.8422,1.6805,-1.0718,-0.3841,9.2957,0.0445,-0.4994,2.0052,-2.5022,2.3743,4.8079,8.2449,0.5815,-1.0256,0.2116,1.5619,-5.5257,6.9842,0.999849,0,1698652000,5
-0.3042,-0.018,0.0261,0.3816,-1.8584,1.3865,-1.2606,-0.4325,9.2509,0.0527,-0.4078,1.9602,-2.2679,2.3475,4.8335,8.3039,0.5156,-0.9493,0.394,1.6863,-5.5718,7.0937,0.999853,0,1698652000,6
-0.3041,-0.0051,0.0303,0.414,-1.7926,1.1291,-1.334,-0.4749,9.1011,0.0922,-0.295,1.9628,-2.0347,2.3087,4.8682,8.3355,0.4696,-0.9122,0.5416,1.7944,-5.6161,7.1849,0.999689,0,1698652000,7
-0.3038,0.0038,0.0348,0.4304,-1.6699,0.9531,-1.3117,-0.5177,9.0072,0.0925,-0.1996,1.8932,-1.7991,2.2548,4.902,8.379,0.4287,-0.8442,0.6495,1.9109,-5.6653,7.2843,0.999143,0,1698652000,7
-0.3031,0.026,0.0389,0.4351,-1.5908,0.8164,-1.2757,-0.5238,9.0907,0.0501,-0.1153,1.7744,-1.5658,2.1924,4.9467,8.4358,0.3944,-0.7351,0.7264,2.034,-5.7062,7.4027,0.997684,0,1698652000,8
-0.3014,0.0669,0.0422,0.4224,-1.5166,0.6676,-1.2638,-0.4704,9.1838,0.0627,-0.0115,1.6583,-1.336,2.1204,4.9967,8.4615,0.3874,-0.6061,0.7717,2.1422,-5.7341,7.5233,0.992725,0,1698652000,9
-0.2987,0.1191,0.045,0.4077,-1.4334,0.5205,-1.2623,-0.3726,9.1963,0.0869,0.0955,1.5502,-1.1174,2.0329,5.0486,8.4681,0.3964,-0.4581,0.7907,2.2095,-5.7524,7.6455,0.977077,0,1698652000,9
-0.295,0.1858,0.0481,0.4,-1.3917,0.4215,-1.2339,-0.1988,9.2517,0.0739,0.1898,1.4424,-0.911,1.9358,5.1154,8.4737,0.4247,-0.3347,0.7773,2.2256,-5.7631,7.7656,0.940869,0,1698652000,10
-0.2905,0.2536,0.0521,0.4099,-1.3031,0.383,-1.1513,-0.0224,9.3054,0.0793,0.263,1.3211,-0.7158,1.8508,5.1788,8.4837,0.4654,-0.2167,0.726,2.214,-5.7835,7.8869,0.894664,0,1698652000,11
-0.2854,0.3127,0.0561,0.4212,-1.1542,0.3932,-1.048,0.1408,9.4276,0.095,0.3181,1.1877,-0.5403,1.7856,5.2315,8.4917,0.5107,-0.1165,0.6597,2.1666,-5.8051,8.0089,0.885265,0,1698652000,12
-0.2808,0.3519,0.0592,0.3987,-0.9968,0.4403,-0.9302,0.3211,9.6895,0.0836,0.3618,1.05,-0.4014,1.7459,5.2879,8.4964,0.5706,-0.0625,0.6151,2.1046,-5.8257,8.0898,0.908923,0,1698652000,12
-0.2771,0.3462,0.0619,0.3746,-0.9035,0.4965,-0.797,0.4977,10.0031,0.089,0.3889,0.938,-0.3148,1.7375,5.3478,8.5192,0.6256,-0.0342,0.6111,2.0888,-5.8286,8.135,0.929114,0,1698652000,13
-0.2743,0.3124,0.0647,0.3719,-0.9589,0.5835,-0.6781,0.6627,10.2108,0.1207,0.4023,0.8833,-0.2808,1.7523,5.4036,8.5551,0.6692,-0.0088,0.6318,2.1188,-5.809,8.1642,0.944916,0,1698652000,14
-0.2724,0.2775,0.0674,0.3558,-1.0539,0.7177,-0.55,0.7496,10.3129,0.1458,0.4161,0.9576,-0.2868,1.7617,5.4569,8.5838,0.7005,0.0185,0.648,2.141,-5.7811,8.1551,0.957206,0,1698652000,14
-0.2717,0.2276,0.07,0.3253,-1.1089,0.8968,-0.4301,0.7915,10.4207,0.1068,0.1993,1.115,-0.2897,1.7324,5.4769,8.5874,0.7205,0.0202,0.6434,2.1259,-5.767,8.1168,0.966759,0,1698652000,15
-0.2717,0.1703,0.0719,0.2919,-1.0315,1.105,-0.3182,0.7781,10.4056,0.0252,0.0062,1.0507,-0.2724,1.6864,5.4777,8.6236,0.7165,0.0104,0.6144,2.1061,-5.7739,8.0798,0.974181,0,1698652000,16
-0.2717,0.1269,0.0731,0.263,-0.8989,1.3136,-0.1929,0.73,10.3655,-0.0331,0.0718,0.7911,-0.2308,1.6664,5.5016,8.7287,0.7066,0.0062,0.5458,2.0683,-5.8143,8.0834,0.979945,0,1698652000,17
-0.2717,0.0987,0.0739,0.2393,-0.8326,1.5489,-0.0658,0.7311,10.3293,0.005,0.1338,0.5775,-0.1704,1.6723,5.533,8.8552,0.7116,-0.0124,0.4635,1.9716,-5.8911,8.153,0.984423,0,1698652000,17
-0.2717,0.0768,0.0742,0.1955,-0.799,1.8152,0.079,0.7307,10.2705,0.0571,0.2187,0.5164,-0.132,1.7121,5.5938,8.9711,0.7232,-0.0524,0.4218,1.8623,-5.9596,8.2728,0.987901,0,1698652000,18
-0.2717,0.0662,0.0742,0.1545,-0.8138,2.0944,0.234,0.7747,10.2221,0.0502,0.3314,0.5329,-0.0843,1.789,5.6909,9.0248,0.7561,-0.1065,0.4226,1.791,-6.0149,8.4132,0.990602,0,1698652000,19
-0.2709,0.0959,0.0741,0.1175,-0.8815,2.163,0.4201,0.7591,10.506,-0.042,0.4181,0.5064,0.0108,1.8803,5.7851,9.0636,0.8115,-0.1783,0.4377,1.7204,-6.0838,8.558,0.9927,0,1698652000,20
-0.2686,0.1837,0.0739,0.083,-0.9392,2.2436,0.6072,0.5795,10.8086,-0.088,0.4599,0.5038,0.1647,1.9469,5.8668,9.1274,0.8724,-0.2954,0.4392,1.6242,-6.1542,8.7058,0.99433,0,1698652000,20
-0.2639,0.3121,0.0737,0.0638,-0.8639,2.4562,0.7304,0.3745,10.8242,0.0928,0.5043,0.5418,0.378,1.9677,5.9663,9.2162,0.9103,-0.5023,0.4131,1.5307,-6.2045,8.8436,0.995596,0,1698652000,21
-0.2567,0.4882,0.0735,0.0492,-0.7611,2.5156,0.7945,0.1465,10.9112,0.3864,0.6113,0.6191,0.6178,1.9517,6.0696,9.3186,0.9125,-0.807,0.3716,1.437,-6.2637,8.9958,0.996579,0,1698652000,22
-0.2467,0.6268,0.0728,0.0101,-0.5576,2.5217,0.858,-0.1813,10.7261,0.6235,0.7787,0.7601,0.8594,1.8992,6.1717,9.4273,0.8792,-1.1187,0.3546,1.3946,-6.3345,9.1741,0.997343,0,1698652000,22
-0.2352,0.7125,0.0708,-0.0547,-0.0622,2.4754,0.9414,-0.6617,10.7749,0.7371,0.9667,0.9565,1.1127,1.7876,6.3023,9.5411,0.8219,-1.3216,0.3755,1.4264,-6.37,9.3314,0.997936,0,1698652000,23
-0.2248,0.7697,0.0673,-0.159,0.4369,2.3047,1.0181,-1.188,11.0655,0.9322,1.1561,1.0758,1.3981,1.6154,6.4505,9.63,0.7671,-1.3607,0.4182,1.476,-6.3575,9.4463,0.998397,0,1698652000,24
-0.2157,0.7731,0.0614,-0.3145,0.6711,2.0332,1.0572,-1.6011,11.1005,1.1905,1.3289,1.0713,1.6999,1.4279,6.602,9.6785,0.7374,-1.2471,0.4718,1.5038,-6.3186,9.5008,0.998755,0,1698652000,25
-0.2079,0.7686,0.0529,-0.4708,0.5948,1.7252,1.0381,-1.8522,11.2607,1.2809,1.4724,1.0099,1.9846,1.2644,6.7248,9.6737,0.7347,-1.0225,0.5373,1.5083,-6.2484,9.479,0.999033,0,1698652000,25
-0.2021,0.7172,0.0426,-0.6306,0.4802,1.3377,1.0157,-1.9711,11.258,1.4258,1.5788,0.8915,2.2355,1.1334,6.7976,9.6141,0.7335,-0.7117,0.6188,1.5067,-6.1267,9.3968,0.999249,0,1698652000,26
-0.1983,0.6245,0.0308,-0.8159,0.4482,0.9242,1.0153,-1.9327,11.103,1.5909,1.6222,0.7109,2.4636,1.0295,6.835,9.4681,0.724,-0.3306,0.6949,1.4525,-5.9499,9.2651,0.999417,0,1698652000,27
-0.1965,0.5158,0.017,-1.0089,0.466,0.5835,1.0235,-1.8503,11.1101,1.6882,1.5793,0.5501,2.6826,0.9854,6.8202,9.2139,0.7209,-0.1291,0.7473,1.3025,-5.7438,9.0803,0.999547,0,1698652000,28
-0.1961,0.4228,0.0017,-1.2114,0.5932,0.375,1.0469,-1.6098,10.802,1.8877,1.4965,0.4883,2.8944,0.9944,6.7459,8.8616,0.7296,0.0785,0.7896,1.0785,-5.5116,8.8501,0.999647,0,1698652000,28
-0.1956,0.3683,-0.0141,-1.4092,0.5667,0.254,1.0293,-1.0101,10.0929,2.1563,1.4066,0.5238,3.1041,1.0274,6.6304,8.4381,0.7576,0.4494,0.8574,0.8139,-5.2316,8.6015,0.999721,0,1698652000,29
-0.1938,0.3434,-0.0307,-1.5329,0.4038,0.0731,0.9858,-0.5243,9.7263,2.4059,1.3035,0.5915,3.3378,1.0666,6.4796,7.9811,0.8075,0.6574,0.9553,0.5632,-4.913,8.3512,0.99976,0,1698652000,30
-0.1905,0.3551,-0.0491,-1.6517,0.2594,-0.0197,0.9222,-0.365,9.6524,2.4262,1.2269,0.6312,3.6061,1.0607,6.3255,7.5312,0.8574,0.7363,1.0909,0.3164,-4.5777,8.1053,0.999751,0,1698652000,30
-0.1851,0.3956,-0.0691,-1.778,0.085,0.0616,0.8089,-0.199,9.5012,2.2809,1.1324,0.6195,3.8828,0.9835,6.2071,7.1588,0.891,0.7839,1.2619,0.0584,-4.2648,7.8867,0.999684,0,1698652000,31
-0.178,0.4813,-0.0894,-1.8214,-0.0735,0.1768,0.6731,0.095,9.3971,2.157,1.0344,0.5388,4.1411,0.8654,6.1403,6.8993,0.912,0.7468,1.4433,-0.1813,-4.0106,7.7452,0.99933,0,1698652000,32
-0.1703,0.5537,-0.1086,-1.8321,-0.1761,0.2892,0.5328,0.274,9.401,2.0581,1.0042,0.5025,4.3528,0.7569,6.1085,6.7407,0.924,0.5399,1.6421,-0.384,-3.8425,7.6859,0.998317,0,1698652000,33
-0.1629,0.5973,-0.1276,-1.8247,-0.2788,0.4345,0.4195,0.2706,9.5852,1.9653,1.0643,0.5553,4.4892,0.6695,6.129,6.683,0.9419,0.1516,1.8937,-0.4907,-3.7649,7.6788,0.997517,0,1698652000,33
-0.1559,0.6161,-0.1463,-1.788,-0.4081,0.6164,0.3076,0.22,9.8638,1.9004,1.2141,0.6091,4.5226,0.6087,6.2261,6.7325,0.9345,-0.2932,2.205,-0.4544,-3.7626,7.7706,0.997675,0,1698652000,34
-0.149,0.5957,-0.1652,-1.777,-0.5544,0.7994,0.1773,0.0894,10.2248,1.858,1.3866,0.7089,4.4259,0.5984,6.3689,6.8955,0.904,-0.7221,2.5465,-0.2634,-3.8116,7.9301,0.998156,0,1698652000,35
-0.1431,0.5771,-0.1844,-1.7997,-0.652,0.9339,0.03,-0.2163,10.7139,1.7735,1.5752,0.886,4.2153,0.6038,6.5578,7.105,0.8795,-1.1073,2.8714,0.0442,-3.8881,8.0994,0.998566,0,1698652000,36
-0.1375,0.5781,-0.2044,-1.8168,-0.789,1.0375,-0.1602,-0.5812,11.1163,1.6584,1.801,1.0296,3.9861,0.5879,6.792,7.291,0.8374,-1.3511,3.1246,0.4032,-3.9828,8.302,0.998886,0,1698652000,36
-0.1318,0.5855,-0.224,-1.8261,-1.0021,1.0984,-0.3847,-0.9379,11.3313,1.538,1.9993,1.0627,3.8276,0.5791,7.0145,7.4881,0.763,-1.3947,3.2821,0.7798,-4.0936,8.5257,0.999135,0,1698652000,37
-0.1264,0.5862,-0.2419,-1.8265,-1.0993,1.0554,-0.611,-1.3125,11.4125,1.4399,2.1312,0.9299,3.7267,0.588,7.1994,7.689,0.6498,-1.2394,3.3456,1.1512,-4.2074,8.7176,0.999327,0,1698652000,38
-0.1216,0.5742,-0.2582,-1.8368,-1.0931,0.8941,-0.8601,-1.6128,11.3358,1.3715,2.1817,0.6035,3.6185,0.6195,7.3721,7.8539,0.5218,-0.9237,3.3319,1.4597,-4.3094,8.86,0.999457,0,1698652000,38
-0.117,0.5866,-0.2737,-1.8303,-1.0831,0.6666,-1.1149,-1.8447,11.0517,1.3489,2.0956,0.0568,3.4953,0.7182,7.4785,7.9611,0.4113,-0.5037,3.2454,1.6711,-4.4076,8.9508,0.999219,0,1698652000,39
-0.1121,0.5842,-0.2897,-1.7535,-1.0336,0.4004,-1.341,-2.0326,10.6017,1.3689,1.9214,-0.5527,3.3765,0.8775,7.5047,8.0107,0.3187,-0.0369,3.0913,1.7881,-4.4818,8.9839,0.996837,0,1698652000,40
-0.1076,0.5449,-0.3049,-1.6521,-0.9338,0.0905,-1.554,-2.186,10.1081,1.3936,1.7477,-1.1437,3.2783,1.0416,7.4745,8.018,0.2382,0.4263,2.8915,1.8176,-4.4977,8.9658,0.785975,0,1698652000,41
-0.1039,0.5052,-0.3184,-1.5483,-0.9117,-0.2516,-1.7809,-2.2397,9.8078,1.3783,1.6026,-1.6829,3.191,1.2434,7.3787,7.9915,0.1749,0.8235,2.675,1.7691,-4.4606,8.8881,0.401962,0,1698652000,41
-0.1,0.4777,-0.3303,-1.4164,-0.9183,-0.6673,-1.9946,-2.2758,9.6684,1.3742,1.4856,-2.0242,3.1035,1.4848,7.2462,7.8879,0.1231,1.1226,2.4599,1.6869,-4.4035,8.762,0.08979,0,1698652000,42
-0.0959,0.4634,-0.3406,-1.2805,-0.7147,-1.1044,-2.1325,-2.3755,9.4019,1.379,1.3803,-2.0345,3.0441,1.7223,7.0928,7.7291,0.0684,1.2749,2.2545,1.5604,-4.3353,8.5978,-0.153476,0,1698652000,43
-0.0923,0.4356,-0.3497,-1.1533,-0.4935,-1.4584,-2.2344,-2.3059,9.2238,1.2662,1.2652,-1.7552,3.0261,1.9122,6.9242,7.5771,0.014,1.2568,2.0736,1.4042,-4.2377,8.3986,-0.342367,0,1698652000,43
-0.0894,0.3979,-0.357,-1.0544,-0.3166,-1.8313,-2.3145,-2.189,9.0726,1.2336,1.152,-1.4438,3.0232,2.0155,6.7409,7.4102,-0.0411,1.1422,1.934,1.2836,-4.1333,8.1902,-0.489099,0,1698652000,44
-0.0868,0.3595,-0.3634,-0.9878,-0.0488,-2.2548,-2.3605,-2.1212,8.9824,1.2134,1.0444,-1.1831,2.9817,2.053,6.583,7.25,-0.152,1.1129,1.8571,1.2085,-4.0396,8.0128,-0.603152,0,1698652000,45
-0.0838,0.3326,-0.3696,-0.9091,0.0902,-2.599,-2.3988,-2.0325,8.8637,1.0865,0.9251,-0.9159,2.8899,2.0557,6.4577,7.1176,-0.2492,1.0509,1.828,1.196,-3.9399,7.8437,-0.69175,0,1698652000,46
-0.0803,0.3325,-0.3743,-0.8064,0.1717,-2.8903,-2.3919,-1.8853,8.4575,0.911,0.8119,-0.6555,2.9753,2.0201,6.3464,6.9947,-0.3035,1.0283,1.8131,1.2321,-3.8459,7.679,-0.760568,0,1698652000,46
-0.0768,0.3407,-0.3774,-0.6926,0.2521,-3.1523,-2.3567,-1.7049,8.2106,0.7351,0.7164,-0.4132,2.9974,1.9526,6.2667,6.853,-0.3788,1.1752,1.7913,1.2587,-3.7833,7.5911,-0.814018,0,1698652000,47
-0.0729,0.3509,-0.3798,-0.5809,0.1151,-3.3499,-2.2995,-1.5942,8.3746,0.579,0.6294,-0.2087,2.7555,1.9015,6.2208,6.7302,-0.4212,1.2535,1.7582,1.23,-3.7557,7.5574,-0.855534,0,1698652000,48
-0.069,0.3643,-0.3815,-0.4731,-0.004,-3.5229,-2.2082,-1.5381,8.8097,0.3021,0.5473,-0.194,2.5147,1.8843,6.1916,6.6326,-0.4481,1.3484,1.7171,1.2325,-3.7501,7.575,-0.887781,0,1698652000,49
-0.0652,0.3689,-0.3822,-0.3791,0.0338,-3.7033,-2.099,-1.5069,9.085,0.1304,0.4606,-0.2891,2.2928,1.8896,6.1988,6.5798,-0.521,1.446,1.6673,1.2621,-3.7279,7.6333,-0.912828,0,1698652000,49
-0.0612,0.3831,-0.3822,-0.2892,-0.0195,-3.8426,-1.9426,-1.341,9.0562,0.0804,0.3532,-0.4038,2.0821,1.9224,6.2261,6.5826,-0.581,1.4571,1.621,1.2556,-3.7015,7.6837,-0.932283,0,1698652000,50
-0.0564,0.392,-0.382,-0.2097,-0.1555,-3.9082,-1.7503,-1.1977,8.9769,-0.0255,0.2126,-0.6267,1.8732,1.9905,6.2537,6.5759,-0.6072,1.475,1.5799,1.2377,-3.6976,7.7145,-0.947389,0,1698652000,51
-0.0512,0.4008,-0.3817,-0.1417,-0.279,-3.9694,-1.5337,-1.1294,9.0222,-0.081,0.0728,-0.8178,1.6871,2.0681,6.2944,6.555,-0.648,1.506,1.5514,1.2273,-3.7004,7.7502,-0.95912,0,1698652000,51
-0.0461,0.4223,-0.3813,-0.0878,-0.444,-3.9794,-1.3015,-0.9876,9.3097,-0.2586,-0.0554,-0.9423,1.5349,2.1131,6.3303,6.5099,-0.6899,1.4926,1.5497,1.2483,-3.6858,7.8031,-0.968238,0,1698652000,52
-0.0409,0.4638,-0.3803,-0.0457,-0.4307,-3.9113,-1.1152,-0.8286,9.6603,-0.3511,-0.1934,-1.0467,1.3946,2.1457,6.3464,6.4738,-0.713,1.4233,1.5466,1.2674,-3.6621,7.8465,-0.975325,0,1698652000,53
-0.0355,0.5131,-0.3778,0.0635,-0.5567,-3.9292,-0.9006,-0.635,9.3908,-0.1244,-0.3304,-1.1397,1.2557,2.1758,6.3693,6.449,-0.7148,1.3363,1.5221,1.3001,-3.6504,7.887,-0.980833,0,1698652000,54
-0.0305,0.5129,-0.3725,0.2485,-0.9502,-3.8919,-0.5839,-0.4817,8.9673,-0.0493,-0.4521,-1.2102,1.1189,2.1892,6.4325,6.4294,-0.7086,1.2943,1.4647,1.3639,-3.6218,7.9328,-0.985112,0,1698652000,54
-0.0261,0.4946,-0.3652,0.4099,-1.1204,-3.7548,-0.2306,-0.4439,8.8897,0.0098,-0.556,-1.1781,0.987,2.1904,6.5169,6.4377,-0.7063,1.2915,1.3443,1.393,-3.5552,8.0034,-0.988436,0,1698652000,55
-0.0209,0.515,-0.3566,0.5227,-1.2595,-3.6048,0.0651,-0.3702,8.8663,0.1559,-0.6597,-1.1728,0.8727,2.1789,6.6298,6.4618,-0.7147,1.3209,1.1826,1.376,-3.4952,8.0538,-0.991017,0,1698652000,56
-0.0145,0.5465,-0.3473,0.6195,-1.1851,-3.4005,0.3008,-0.4054,8.8051,0.3159,-0.7514,-1.1899,0.7677,2.1872,6.7373,6.5164,-0.763,1.3863,0.994,1.3374,-3.5136,8.1123,-0.993023,0,1698652000,57
-0.008,0.5656,-0.3388,0.6954,-0.9569,-3.137,0.4907,-0.3967,8.7281,0.5372,-0.814,-1.2271,0.6537,2.2125,6.81,6.6116,-0.8218,1.3945,0.7605,1.259,-3.5837,8.187,-0.994581,0,1698652000,57
-0.0011,0.573,-0.3302,0.7137,-0.7643,-2.8488,0.6067,-0.2458,8.7416,0.7166,-0.8644,-1.3412,0.5158,2.2785,6.8577,6.7271,-0.8735,1.3505,0.505,1.1527,-3.6769,8.2621,-0.995791,0,1698652000,58
0.0058,0.5631,-0.3219,0.6998,-0.4715,-2.5517,0.6746,-0.1792,8.8212,0.8233,-0.9053,-1.4383,0.3592,2.3992,6.89,6.8504,-0.9307,1.2704,0.2393,1.0295,-3.7955,8.3824,-0.99673,0,1698652000,59
0.0123,0.5607,-0.3154,0.67,-0.2057,-2.2084,0.7103,-0.1312,8.9029,0.8859,-0.925,-1.4976,0.2206,2.5349,6.9185,6.974,-0.9776,1.1426,-0.0396,0.8723,-3.9291,8.5047,-0.99746,0,1698652000,59
0.0184,0.5934,-0.3105,0.6014,0.1132,-1.8736,0.7193,-0.1059,8.9805,0.9235,-0.9174,-1.5027,0.1359,2.6967,6.938,7.0866,-1.0166,0.9657,-0.3141,0.6971,-4.0732,8.5882,-0.998027,0,1698652000,60
0.024,0.6204,-0.3078,0.4998,0.4307,-1.5803,0.6845,-0.1443,9.1579,0.8844,-0.8825,-1.4368,0.1085,2.8601,6.9582,7.1844,-1.041,0.7312,-0.5478,0.5265,-4.2076,8.64,-0.998468,0,1698652000,61
0.0289,0.5977,-0.3073,0.37,0.622,-1.3057,0.637,-0.1912,9.356,0.8053,-0.8375,-1.3175,0.123,3.002,6.9805,7.2597,-1.0522,0.4578,-0.7055,0.3868,-4.301,8.6704,-0.9988,0,1698652000,62
0.0333,0.562,-0.3074,0.2579,0.6947,-1.0156,0.578,-0.2121,9.4669,0.6899,-0.8008,-1.1267,0.17,3.1223,6.9942,7.2994,-1.0559,0.1663,-0.799,0.2983,-4.3503,8.6763,-0.998892,0,1698652000,62
0.0373,0.5346,-0.3074,0.1773,0.7197,-0.7614,0.4989,-0.2805,9.549,0.5278,-0.7843,-0.8883,0.2398,3.1896,6.9976,7.3278,-1.0629,-0.119,-0.8529,0.252,-4.3654,8.6501,-0.998326,0,1698652000,63
0.0409,0.5085,-0.3075,0.1254,0.7987,-0.5698,0.4375,-0.4196,9.6598,0.3188,-0.7961,-0.6732,0.3272,3.1967,6.9785,7.3611,-1.0727,-0.3908,-0.8734,0.2422,-4.3592,8.5935,-0.990986,0,1698652000,64
0.0445,0.4762,-0.3075,0.0971,0.9232,-0.4134,0.3906,-0.6052,9.6625,0.0755,-0.8377,-0.5233,0.4105,3.1613,6.9154,7.3595,-1.0735,-0.6574,-0.8493,0.2755,-4.3474,8.5206,-0.910469,0,1698652000,64
0.048,0.4526,-0.3076,0.0721,1.0437,-0.3371,0.3789,-0.8229,9.5633,-0.1314,-0.8956,-0.4332,0.4658,3.1165,6.8171,7.3106,-1.0664,-0.9181,-0.7794,0.3493,-4.3356,8.4528,-0.668976,0,1698652000,65
0.0519,0.4474,-0.3076,0.0534,1.1254,-0.3238,0.3971,-1.1016,9.4312,-0.2758,-0.9533,-0.393,0.4993,3.072,6.7227,7.2625,-1.06,-1.1615,-0.6894,0.4496,-4.3368,8.4223,-0.351288,0,1698652000,66
0.0563,0.4501,-0.3076,0.0415,1.1539,-0.3816,0.4155,-1.4292,9.3713,-0.3493,-1.0101,-0.3772,0.5246,3.0228,6.6672,7.2765,-1.0602,-1.3924,-0.5981,0.5769,-4.3666,8.44,-0.096516,0,1698652000,67
0.0611,0.4495,-0.3076,0.0454,1.2229,-0.522,0.4588,-1.7713,9.4149,-0.3183,-1.0516,-0.3572,0.5442,2.9829,6.6463,7.3488,-1.062,-1.5989,-0.5102,0.7207,-4.4385,8.5016,0.067393,0,1698652000,67
0.0652,0.4101,-0.3076,0.0549,1.3652,-0.695,0.5307,-2.0614,9.6062,-0.2812,-1.0618,-0.4039,0.5483,2.9755,6.6717,7.464,-1.0729,-1.7525,-0.424,0.8869,-4.5552,8.6235,0.160658,0,1698652000,68
0.0679,0.3651,-0.3073,0.053,1.4927,-0.9401,0.5815,-2.276,10.1907,-0.324,-1.0585,-0.5859,0.5285,3.0191,6.7471,7.6412,-1.1204,-1.7474,-0.3383,1.0864,-4.7188,8.8075,0.110678,0,1698652000,69
0.0698,0.3187,-0.3067,0.0535,1.6505,-1.2549,0.5792,-2.4072,10.7008,-0.3666,-1.0458,-0.8338,0.491,3.1041,6.8511,7.8469,-1.1847,-1.5577,-0.2837,1.2664,-4.9047,9.0329,-0.087064,0,1698652000,70
0.0711,0.2679,-0.3052,0.0896,1.7621,-1.5148,0.5433,-2.3134,10.5804,-0.2915,-1.0359,-1.1183,0.4567,3.2121,6.9845,8.0749,-1.2244,-1.3106,-0.2839,1.3653,-5.113,9.2864,-0.289762,0,1698652001,70
0.0717,0.2111,-0.3014,0.2037,1.6501,-1.7183,0.2743,-2.0487,10.5202,0.0256,-1.0129,-1.3914,0.4412,3.2914,7.1576,8.3469,-1.2381,-1.0684,-0.3318,1.3913,-5.3477,9.5394,-0.448244,0,1698652001,71
0.0716,0.1544,-0.2945,0.3655,1.5777,-1.8756,0.0244,-1.7725,10.7411,0.5207,-0.9746,-1.5549,0.4103,3.3102,7.3236,8.6519,-1.2446,-0.836,-0.4149,1.3956,-5.5835,9.7917,-0.571388,0,1698652001,72
0.0715,0.1086,-0.286,0.4944,1.691,-1.9219,0.0016,-1.3508,11.0072,0.9812,-0.9414,-1.6196,0.3336,3.307,7.4606,8.964,-1.2461,-0.6606,-0.5324,1.3932,-5.8356,10.0431,-0.667003,0,1698652001,72
0.0713,0.0659,-0.2776,0.549,1.8097,-1.8223,-0.0971,-0.8191,11.3345,1.3787,-0.8943,-1.6145,0.2134,3.314,7.5798,9.2243,-1.2167,-0.6343,-0.7012,1.3935,-6.1022,10.2543,-0.740906,0,1698652001,73
0.0705,0.0181,-0.2704,0.5541,2.08,-1.572,-0.2223,-0.3224,11.5502,1.7056,-0.8484,-1.5612,0.0733,3.3214,7.6673,9.4168,-1.1512,-0.7246,-0.9337,1.3694,-6.3558,10.4272,-0.77981,0,1698652001,74
0.0677,-0.0898,-0.2647,0.5484,2.4399,-1.2268,-0.2974,0.0941,11.663,1.9016,-0.8076,-1.4669,-0.0612,3.3058,7.6979,9.5183,-1.0484,-0.8357,-1.2029,1.3323,-6.5327,10.5249,-0.590535,0,1698652001,75
0.062,-0.2647,-0.2593,0.5553,2.555,-0.7762,-0.3242,0.3949,11.602,1.9629,-0.7725,-1.3084,-0.1963,3.2546,7.6438,9.4899,-0.8909,-0.9262,-1.4546,1.3409,-6.5708,10.4995,-0.238874,0,1698652001,75
0.0535,-0.4549,-0.2533,0.5918,2.5114,-0.3419,-0.2854,0.5542,11.3565,2.0193,-0.7588,-1.0771,-0.3328,3.1424,7.5219,9.3454,-0.6911,-0.9556,-1.6808,1.3769,-6.4963,10.3536,0.037578,0,1698652001,76
0.0429,-0.6349,-0.247,0.6137,2.4146,0.0124,-0.1717,0.5176,11.0924,2.045,-0.7926,-0.7722,-0.472,2.9526,7.3281,9.0999,-0.4592,-0.9035,-1.8949,1.4215,-6.3468,10.0668,0.252359,0,1698652001,77
0.0299,-0.8059,-0.2402,0.6524,2.2166,0.3175,-0.0288,0.3146,10.7215,2.0845,-0.8767,-0.4391,-0.6347,2.6978,7.0634,8.7835,-0.2032,-0.7684,-2.0918,1.4681,-6.1449,9.6615,0.419271,0,1698652001,78
0.0146,-0.9425,-0.2326,0.711,1.9955,0.5409,0.1043,0.0958,10.3658,2.0742,-0.9634,0.0259,-0.8284,2.4196,6.7528,8.4418,0.0476,-0.5689,-2.2771,1.5065,-5.8932,9.1914,0.548928,0,1698652001,78
-0.0014,-1.0869,-0.2245,0.7514,1.7778,0.6572,0.2545,-0.1293,10.252,1.9911,-1.0494,0.4578,-1.0513,2.1055,6.4204,8.0949,0.2714,-0.3125,-2.4432,1.5203,-5.6076,8.6707,0.649639,0,1698652001,79
-0.0184,-1.2419,-0.2157,0.8031,1.6265,0.7153,0.4513,-0.4358,10.0404,2.0234,-1.1427,0.7072,-1.3045,1.7856,6.0876,7.7808,0.4358,-0.0026,-2.5927,1.5109,-5.3328,8.1265,0.727864,0,1698652001,80
-0.0372,-1.3361,-0.2064,0.8568,1.5057,0.7629,0.663,-0.643,9.8475,1.9979,-1.239,0.7868,-1.5847,1.4973,5.7901,7.5422,0.532,0.2953,-2.748,1.4655,-5.0973,7.6247,0.788624,0,1698652001,80
-0.0558,-1.4164,-0.1969,0.9047,1.3845,0.7266,0.8291,-0.8303,9.6971,1.9305,-1.3308,0.5895,-1.8807,1.2472,5.5342,7.4074,0.7916,0.5683,-2.9326,1.3761,-4.9418,7.2202,0.835818,0,1698652001,81
-0.0743,-1.4747,-0.1875,0.9275,1.2691,0.6626,0.9172,-0.9651,9.4739,1.8392,-1.4158,0.2283,-2.1942,1.0802,5.3234,7.366,0.9507,0.8086,-3.1654,1.2514,-4.8828,6.9255,0.872475,0,1698652001,82
-0.0927,-1.5236,-0.178,0.9571,1.0917,0.5822,0.9184,-1.0009,9.3433,1.7249,-1.4929,-0.2039,-2.5203,1.0234,5.1778,7.4076,0.8203,0.9773,-3.4212,1.0693,-4.9241,6.7664,0.900948,0,1698652001,83
-0.1098,-1.5398,-0.1681,0.9567,0.9394,0.4124,0.8391,-0.9856,9.4217,1.6084,-1.5221,-0.6589,-2.8358,1.0689,5.0843,7.5247,0.6892,1.1143,-3.6583,0.8557,-5.0462,6.7329,0.923063,0,1698652001,83
-0.1253,-1.493,-0.1579,0.9453,0.7794,0.2098,0.7,-0.9075,9.531,1.5489,-1.4979,-1.1002,-3.1457,1.1788,5.0584,7.6944,0.5516,1.2642,-3.8211,0.6339,-5.1991,6.7804,0.94024,0,1698652001,84
-0.1401,-1.4566,-0.1479,0.9739,0.6423,0.0294,0.5741,-0.7637,9.6394,1.562,-1.4382,-1.4982,-3.4494,1.3496,5.1163,7.8947,0.3995,1.4078,-3.859,0.4234,-5.3916,6.9276,0.95358,0,1698652001,85
-0.1546,-1.4269,-0.1378,0.9998,0.5562,-0.1389,0.4865,-0.5664,9.88,1.5548,-1.345,-1.8032,-3.7288,1.5762,5.2078,8.0741,0.2652,1.4487,-3.7793,0.2559,-5.5818,7.1326,0.963902,0,1698652001,86
-0.1683,-1.3859,-0.1281,1.0093,0.5107,-0.2627,0.4551,-0.3772,10.0575,1.5463,-1.2478,-1.9753,-3.9764,1.8288,5.3131,8.2166,0.1421,1.3842,-3.6194,0.1619,-5.7084,7.3349,0.971478,0,1698652001,86
-0.1816,-1.3567,-0.1185,0.9955,0.4907,-0.3035,0.5006,-0.1791,10.0778,1.5458,-1.1758,-1.9956,-4.1807,2.0775,5.4389,8.3161,0.0031,1.2462,-3.404,0.1383,-5.8024,7.5355,0.975806,0,1698652001,87
-0.1954,-1.3339,-0.1087,0.97,0.4385,-0.3046,0.6101,0.0352,9.9767,1.5697,-1.1326,-1.8316,-4.3207,2.2797,5.53,8.3565,-0.1228,1.0411,-3.1651,0.166,-5.869,7.7002,0.977331,0,1698652001,88
-0.2087,-1.2864,-0.0995,0.9609,0.3417,-0.2483,0.7718,0.2441,9.8242,1.5867,-1.1085,-1.498,-4.3783,2.4231,5.5746,8.3405,-0.2095,0.7889,-2.9387,0.2436,-5.8853,7.8129,0.978266,0,1698652001,88
-0.2208,-1.2333,-0.0909,0.9592,0.2435,-0.1227,0.9477,0.4077,9.6883,1.6007,-1.0854,-1.0531,-4.3701,2.5129,5.5801,8.2937,-0.2513,0.4984,-2.7475,0.3541,-5.8569,7.867,0.980612,0,1698652001,89
-0.2324,-1.1984,-0.0827,0.9167,0.1979,0.0336,1.1389,0.5441,9.6374,1.6298,-1.0522,-0.5584,-4.3297,2.5323,5.5186,8.218,-0.2676,0.2532,-2.5972,0.4961,-5.7973,7.8588,0.984108,0,1698652001,90
-0.2437,-1.1623,-0.075,0.8749,0.2716,0.2146,1.3683,0.6078,9.625,1.6585,-0.9923,-0.1017,-4.2771,2.4924,5.4286,8.1226,-0.2632,0.0934,-2.4584,0.6603,-5.709,7.7978,0.987446,0,1698652001,91
-0.2541,-1.1089,-0.0677,0.8541,0.3041,0.4678,1.6028,0.6386,9.4938,1.6049,-0.9143,0.2582,-4.2259,2.4218,5.3533,8.0231,-0.241,0.023,-2.3165,0.8123,-5.6016,7.7003,0.990207,0,1698652001,91
-0.2632,-1.0569,-0.0603,0.8169,0.3072,0.7402,1.8122,0.6896,9.3625,1.5299,-0.8494,0.4797,-4.199,2.3389,5.2821,7.91,-0.2119,0.0177,-2.1917,0.9246,-5.4937,7.5839,0.992387,0,1698652001,92
-0.2717,-0.9874,-0.0532,0.7624,0.342,0.9714,1.9433,0.8053,9.3084,1.4649,-0.7956,0.6024,-4.2019,2.2746,5.2096,7.7946,-0.1798,0.0468,-2.0914,1.0234,-5.3833,7.4488,0.994086,0,1698652001,93
-0.2791,-0.8996,-0.0465,0.7245,0.2983,1.1758,2.0161,0.8682,9.1784,1.3797,-0.7504,0.6644,-4.2127,2.2286,5.1482,7.6849,-0.1465,0.0933,-2.0161,1.0983,-5.284,7.3132,0.995406,0,1698652001,93
-0.2853,-0.844,-0.0403,0.7037,0.272,1.2961,2.0651,0.8376,9.1629,1.3052,-0.7033,0.71,-4.2288,2.1977,5.1,7.604,-0.1231,0.1124,-1.9533,1.1444,-5.2066,7.2065,0.996432,0,1698652001,94
-0.2908,-0.7953,-0.0344,0.6864,0.2397,1.3811,2.0673,0.8225,9.2576,1.1798,-0.648,0.7574,-4.2327,2.2052,5.0519,7.5572,-0.1143,0.1161,-1.8841,1.1644,-5.1435,7.1274,0.997228,0,1698652001,95
-0.2956,-0.7163,-0.0282,0.693,0.1472,1.482,2.0298,0.8369,9.1734,1.1069,-0.594,0.7746,-4.2128,2.2338,5.022,7.5436,-0.1185,0.1028,-1.809,1.1482,-5.0895,7.0561,0.997847,0,1698652001,96
-0.3002,-0.64,-0.022,0.7121,0.0337,1.5757,1.9487,0.8933,9.0265,1.0637,-0.5529,0.7871,-4.1675,2.2605,5.0212,7.5565,-0.1091,0.0388,-1.7371,1.1519,-5.0721,7.0159,0.998328,0,1698652001,96
-0.3043,-0.5724,-0.0164,0.6685,-0.0912,1.6051,1.8141,0.9122,9.0917,0.9611,-0.5235,0.8309,-4.099,2.2839,5.0182,7.5695,-0.0872,-0.0297,-1.6701,1.1903,-5.0748,6.9956,0.998701,0,1698652001,97
-0.3077,-0.5121,-0.0116,0.5986,-0.2802,1.6117,1.6337,0.8398,9.2384,0.8462,-0.5033,0.8939,-4.0237,2.2847,5.0143,7.5996,-0.0609,-0.1033,-1.5926,1.2424,-5.0837,6.9703,0.998991,0,1698652001,98
-0.31,-0.4415,-0.0073,0.5524,-0.4739,1.6142,1.4203,0.7193,9.379,0.6792,-0.5174,0.9522,-3.9465,2.2817,5.0206,7.6559,-0.0319,-0.2168,-1.5229,1.3015,-5.105,6.9581,0.999214,0,1698652001,99
-0.311,-0.3491,-0.0034,0.5087,-0.6149,1.5736,1.1609,0.6272,9.4286,0.5334,-0.5343,0.8654,-3.8831,2.2993,5.0436,7.7213,-0.0009,-0.3347,-1.4705,1.3511,-5.1271,6.9593,0.999385,0,1698652001,99
-0.3112,-0.2673,-0.0002,0.4641,-0.8148,1.5216,0.8843,0.5462,9.5035,0.3905,-0.5491,0.9471,-3.8534,2.2943,5.0522,7.7817,0.019,-0.3956,-1.4222,1.4087,-5.1577,6.9773,0.999514,0,1698652001,0
-0.3111,-0.2072,0.0029,0.4357,-1.1218,1.4608,0.5971,0.436,9.6587,0.2196,-0.5837,1.1963,-3.8449,2.2583,5.0295,7.8227,0.0037,-0.385,-1.3753,1.4732,-5.1865,6.9793,0.99961,0,1698652001,1
-0.311,-0.1547,0.0062,0.4489,-1.4258,1.3658,0.2871,0.3651,9.699,0.1112,-0.613,1.274,-3.8366,2.2061,5.0107,7.8594,-0.0056,-0.3682,-1.3192,1.5184,-5.2151,6.9557,0.999676,0,1698652001,2
-0.3108,-0.1229,0.0103,0.4551,-1.6211,1.2,-0.0211,0.2938,9.6107,0.0925,-0.6333,1.2875,-3.8258,2.1764,4.9833,7.9237,-0.0085,-0.3279,-1.2475,1.5595,-5.2616,6.9561,0.999714,0,1698652001,2
-0.3105,-0.1032,0.0151,0.4475,-1.7105,1.0133,-0.3022,0.2365,9.5089,0.0638,-0.6644,1.3406,-3.8047,2.1684,4.9343,7.9996,-0.0373,-0.2685,-1.1825,1.5892,-5.3428,6.9802,0.999716,0,1698652001,3
-0.3102,-0.0602,0.0194,0.4403,-1.8431,0.8427,-0.5742,0.2002,9.5116,0.0119,-0.6894,1.3989,-3.7772,2.1589,4.8785,8.0537,-0.051,-0.2334,-1.1141,1.6254,-5.4669,7.0163,0.999669,0,1698652001,4
-0.3101,-0.0276,0.023,0.4286,-2.0159,0.6863,-0.857,0.1411,9.5089,0.0209,-0.7062,1.2728,-3.7243,2.1829,4.8224,8.1107,-0.0294,-0.2232,-1.0209,1.6728,-5.6133,7.0676,0.999556,0,1698652001,5
-0.3099,-0.0209,0.0266,0.4409,-2.1152,0.5256,-1.0861,0.0898,9.3929,0.1274,-0.7125,1.1085,-3.6151,2.2247,4.7713,8.1681,0.0207,-0.2732,-0.9153,1.7219,-5.7032,7.1248,0.997695,0,1698652001,5
-0.3096,-0.0267,0.0311,0.4589,-2.1932,0.3889,-1.2317,0.077,9.2881,0.2259,-0.6765,1.0797,-3.4782,2.2433,4.7776,8.2276,0.0818,-0.3368,-0.8009,1.7784,-5.7174,7.1973,0.98684,0,1698652001,6
-0.3091,-0.0208,0.0358,0.4601,-2.2214,0.3048,-1.3047,0.0496,9.2602,0.2249,-0.6263,1.1383,-3.3421,2.2532,4.8415,8.3083,0.1155,-0.3078,-0.6703,1.8389,-5.733,7.2891,0.965988,0,1698652001,7
-0.308,0.015,0.0396,0.4277,-2.1862,0.2447,-1.3418,0.0444,9.2091,0.2562,-0.5993,1.1156,-3.1733,2.2448,4.9193,8.3729,0.1375,-0.1958,-0.539,1.9014,-5.7699,7.3827,0.93627,0,1698652001,8
-0.3057,0.0765,0.0422,0.3889,-2.094,0.192,-1.3527,0.104,9.2256,0.3337,-0.6013,0.9531,-2.9511,2.2079,5.0035,8.4276,0.1733,-0.084,-0.443,1.9403,-5.8147,7.4885,0.895279,0,1698652001,9
-0.302,0.1431,0.0446,0.3742,-1.8819,0.1851,-1.3015,0.1591,9.1916,0.443,-0.5918,0.7945,-2.6906,2.1738,5.0565,8.4885,0.2276,-0.0152,-0.3863,1.9246,-5.8764,7.6054,0.841815,0,1698652001,9
-0.2977,0.1873,0.0475,0.3709,-1.6728,0.2574,-1.1936,0.2324,8.9856,0.586,-0.5333,0.7174,-2.4082,2.1485,5.0844,8.5567,0.2825,0.0111,-0.3636,1.8509,-5.9498,7.7237,0.806236,0,1698652001,10
-0.2933,0.2247,0.0507,0.3634,-1.4942,0.3612,-1.0876,0.4328,8.9538,0.6751,-0.4418,0.7043,-2.1182,2.1231,5.1135,8.6238,0.1257,-0.0256,-0.357,1.7445,-6.038,7.8589,0.807111,0,1698652001,11
-0.2893,0.2472,0.0533,0.3241,-1.2157,0.4478,-1.0113,0.6441,9.2045,0.7478,-0.3205,0.7223,-1.8187,2.0818,5.1522,8.662,0.0347,-0.1275,-0.3365,1.6578,-6.1189,8.0046,0.825961,0,1698652001,12
-0.286,0.242,0.0548,0.2644,-0.9619,0.5671,-0.9375,0.7413,9.5443,0.7655,-0.1743,0.7465,-1.5248,2.0308,5.2175,8.708,0.2068,-0.256,-0.2849,1.6474,-6.1635,8.1201,0.856111,0,1698652001,12
-0.2841,0.2077,0.0552,0.1911,-0.8781,0.739,-0.8563,0.8225,9.8409,0.6611,-0.0198,0.8462,-1.2684,1.9735,5.3059,8.7886,0.3652,-0.3899,-0.2149,1.6933,-6.1795,8.1914,0.887579,0,1698652001,13
-0.2838,0.1452,0.0552,0.1463,-0.8275,0.8861,-0.7626,0.8353,9.9662,0.5282,0.1146,0.9296,-1.0402,1.8982,5.4061,8.8681,0.495,-0.4904,-0.1546,1.7744,-6.1755,8.2302,0.912674,0,1698652001,14
-0.2841,0.0958,0.0553,0.1293,-0.72,1.02,-0.6455,0.76,9.9256,0.3455,0.208,0.9237,-0.817,1.7879,5.4776,8.9266,0.5917,-0.5481,-0.1359,1.838,-6.1693,8.2366,0.932171,0,1698652001,15
-0.2842,0.0684,0.0559,0.1245,-0.5633,1.1896,-0.4872,0.6673,9.8609,0.0519,0.2635,0.891,-0.5916,1.6603,5.4913,8.9616,0.6539,-0.5793,-0.175,1.8376,-6.1711,8.2017,0.947315,0,1698652001,16
-0.2844,0.0321,0.0576,0.1561,-0.3571,1.4014,-0.308,0.6314,9.7182,-0.2636,0.2725,0.7258,-0.3543,1.5379,5.4964,8.9971,0.6929,-0.5933,-0.2574,1.7545,-6.1985,8.1963,0.959078,0,1698652001,16
-0.2844,0.0144,0.0608,0.2005,0.2114,1.7717,0.0232,0.68,9.6488,-0.4589,0.2644,0.13,0.1033,1.4256,5.5425,9.0841,0.7609,-0.7052,-0.3817,1.4265,-6.2874,8.4006,0.968215,0,1698652001,17
-0.2843,0.0193,0.0672,0.2461,0.4303,1.9848,0.1652,0.7896,9.8632,-0.5265,0.2647,-0.1286,0.2596,1.5042,5.5939,9.1209,0.7998,-0.847,-0.3353,1.3119,-6.3075,8.5232,0.975312,0,1698652001,18
-0.2829,0.0484,0.0735,0.2478,0.2033,2.4324,0.3146,0.6614,10.617,-0.8344,0.253,-0.1002,0.3613,1.6399,5.6779,9.1329,0.8488,-1.0356,-0.2021,1.2684,-6.3076,8.6517,0.980824,0,1698652001,19
-0.2787,0.1483,0.0756,0.1977,-0.2807,2.8815,0.5815,0.5087,11.3775,-1.0819,0.2388,-0.1233,0.4634,1.8101,5.7766,9.1184,0.9022,-1.2425,-0.0236,1.3131,-6.2911,8.7786,0.985105,0,1698652001,19
-0.2706,0.3465,0.0755,0.1517,-0.4172,2.886,0.6763,0.4411,11.4168,-0.6958,0.2286,-0.3373,0.6211,1.9552,5.8917,9.1424,0.9378,-1.4118,0.1635,1.3928,-6.2794,8.9178,0.988431,0,1698652001,20
-0.259,0.5599,0.0751,0.1153,-0.2982,2.6808,0.5157,0.2667,11.2501,-0.173,0.2692,-0.3978,0.81,2.0543,6.0044,9.2244,0.9543,-1.5297,0.3481,1.4477,-6.3216,9.0676,0.991014,0,1698652001,21
-0.2453,0.7063,0.0744,0.065,-0.1998,2.6628,0.4667,0.1189,11.0512,0.1874,0.3903,-0.3707,1.013,2.1257,6.117,9.3148,0.9807,-1.6434,0.5358,1.5027,-6.3706,9.212,0.99302,0,1698652001,22
-0.231,0.8261,0.0726,-0.0018,-0.0638,2.6318,0.4644,-0.1629,10.7878,0.5636,0.5687,-0.2635,1.2542,2.1434,6.2502,9.3923,1.0379,-1.7487,0.7157,1.5855,-6.3601,9.3073,0.994579,0,1698652001,22
-0.2173,0.896,0.0691,-0.0857,0.2328,2.4671,0.4687,-0.5416,10.7274,0.8782,0.7729,-0.1096,1.5429,2.0871,6.3903,9.4452,1.1036,-1.7913,0.8614,1.6874,-6.3097,9.3506,0.995789,0,1698652001,23
-0.2053,0.9079,0.0631,-0.2672,0.5765,2.2574,0.5052,-0.9851,10.9699,1.1776,0.9877,0.0663,1.8814,1.9782,6.5192,9.4521,1.1641,-1.7656,0.9575,1.7691,-6.2096,9.3621,0.996729,0,1698652001,24
-0.1957,0.9066,0.0539,-0.4983,0.8068,1.9956,0.5224,-1.3543,11.225,1.4321,1.1895,0.2335,2.238,1.8535,6.6203,9.4075,1.2119,-1.6434,1.0245,1.8076,-6.0726,9.305,0.997459,0,1698652001,25
-0.1881,0.8758,0.0421,-0.6743,0.9244,1.6568,0.5137,-1.5015,11.1575,1.6816,1.3702,0.3677,2.5789,1.7126,6.6876,9.3066,1.2277,-1.4053,1.1037,1.8151,-5.8856,9.1657,0.998027,0,1698652001,26
-0.1833,0.7727,0.0284,-0.8453,0.9722,1.2803,0.5146,-1.4306,10.7176,2.0363,1.5139,0.4625,2.8898,1.5539,6.7293,9.117,1.2178,-1.0721,1.2003,1.7886,-5.6162,8.9429,0.998467,0,1698652001,26
-0.1812,0.6186,0.0127,-1.0239,0.9642,0.9035,0.534,-1.4183,10.4176,2.3723,1.5718,0.4893,3.1661,1.4301,6.7124,8.816,1.1863,-0.6471,1.288,1.6921,-5.304,8.6634,0.998809,0,1698652001,27
-0.1811,0.4847,-0.0084,-1.2408,0.9742,0.6262,0.5381,-1.4311,10.3238,2.4533,1.5358,0.4982,3.4047,1.3567,6.6277,8.4356,1.1694,-0.2778,1.3545,1.503,-4.9821,8.3817,0.999075,0,1698652001,28
-0.1808,0.3936,-0.0303,-1.4545,1.1694,0.5122,0.6059,-1.2108,10.1528,2.3278,1.4252,0.575,3.6163,1.3024,6.4951,8.0107,1.1862,-0.0012,1.4189,1.2361,-4.6594,8.1287,0.999282,0,1698652001,29
-0.1788,0.3637,-0.0487,-1.5481,1.3858,0.4219,0.7004,-0.7675,9.579,2.4666,1.2916,0.6891,3.8293,1.2292,6.3528,7.6111,1.2052,0.2341,1.4945,0.9184,-4.3464,7.9196,0.999442,0,1698652001,29
-0.175,0.4076,-0.0667,-1.5539,1.276,0.4191,0.6835,-0.2677,8.8436,2.5779,1.21,0.7676,4.051,1.1119,6.2462,7.2567,1.2037,0.3496,1.5728,0.6051,-4.0569,7.7654,0.999567,0,1698652001,30
-0.1693,0.4781,-0.0835,-1.5932,1.0366,0.4579,0.5757,-0.0296,8.5119,2.3867,1.2037,0.7919,4.2667,0.9943,6.1809,7.0015,1.1728,0.3361,1.6524,0.3177,-3.8579,7.6698,0.999663,0,1698652001,31
-0.162,0.5737,-0.1004,-1.6285,0.8301,0.4862,0.4443,0.0374,8.4331,2.1764,1.2235,0.7741,4.4563,0.8961,6.1707,6.8754,1.1164,0.1723,1.7432,0.0666,-3.7741,7.6446,0.999738,0,1698652001,32
-0.1538,0.6834,-0.1182,-1.643,0.5811,0.6012,0.3099,0.1998,8.4694,2.0569,1.2482,0.7151,4.5815,0.816,6.2115,6.8456,1.0487,-0.1407,1.8674,-0.0889,-3.7858,7.7029,0.999787,0,1698652001,33
-0.1451,0.7604,-0.1362,-1.6948,0.346,0.7169,0.1696,0.3733,8.6641,2.0822,1.3084,0.6446,4.6046,0.7709,6.2862,6.9227,0.9825,-0.5364,2.0482,-0.1193,-3.8657,7.8206,0.999779,0,1698652001,33
-0.136,0.7804,-0.1544,-1.7561,0.1318,0.7931,-0.0006,0.3015,9.0708,2.1219,1.4105,0.5813,4.5356,0.7749,6.3918,7.0796,0.9132,-0.9511,2.2739,-0.0157,-3.9724,7.9769,0.99977,0,1698652001,34
-0.1269,0.7642,-0.1728,-1.8268,-0.1138,0.8966,-0.2164,0.1026,9.5864,2.0554,1.552,0.6089,4.3967,0.8307,6.539,7.2515,0.8244,-1.2775,2.5139,0.2166,-4.0836,8.1561,0.99981,0,1698652001,35
-0.118,0.7799,-0.1912,-1.8608,-0.2935,0.9975,-0.4471,-0.16,10.0933,1.9111,1.7181,0.7444,4.2344,0.8949,6.71,7.4256,0.7111,-1.4543,2.7311,0.5045,-4.1897,8.3541,0.999852,0,1698652001,36
-0.1098,0.8041,-0.2088,-1.8406,-0.3564,1.0724,-0.6808,-0.5116,10.4044,1.7784,1.8821,0.8514,4.11,0.9177,6.891,7.5939,0.5737,-1.4885,2.8767,0.7965,-4.285,8.556,0.999885,0,1698652001,36
-0.1021,0.8023,-0.2244,-1.8254,-0.3822,1.0684,-0.933,-0.8426,10.5551,1.6913,2.0564,0.8834,4.0321,0.9208,7.0502,7.7453,0.4184,-1.3958,2.9455,1.0792,-4.3844,8.7299,0.999911,0,1698652001,37
-0.0944,0.7902,-0.2384,-1.797,-0.3298,0.9289,-1.1869,-1.1735,10.6118,1.6617,2.2284,0.8069,3.9759,0.9563,7.1386,7.8794,0.273,-1.1908,2.9658,1.3255,-4.4881,8.8561,0.999931,0,1698652001,38
-0.0871,0.7764,-0.2513,-1.7156,-0.2031,0.7524,-1.4011,-1.5006,10.5917,1.5857,2.3151,0.4824,3.9262,1.0309,7.1771,7.981,0.161,-0.9175,2.9525,1.5085,-4.568,8.897,0.999944,0,1698652001,39
-0.0807,0.727,-0.263,-1.6302,-0.1643,0.5898,-1.6067,-1.7528,10.474,1.4586,2.2751,0.1903,3.8928,1.1388,7.1731,8.0293,0.0902,-0.6335,2.9234,1.6199,-4.6131,8.8793,0.999941,0,1698652001,40
-0.0747,0.6703,-0.2745,-1.5588,-0.1146,0.3612,-1.792,-1.9401,10.2976,1.3919,2.1554,-0.1977,3.8762,1.2777,7.1277,8.0124,0.0496,-0.3576,2.8992,1.6784,-4.6181,8.8177,0.999764,0,1698652001,40
-0.0694,0.6329,-0.2851,-1.4627,0.0263,0.0422,-1.9385,-2.1489,10.0916,1.3914,2.042,-0.6975,3.8522,1.4495,7.0644,7.969,0.0113,-0.0674,2.8846,1.6931,-4.5758,8.7106,0.911112,0,1698652001,41
-0.0652,0.5903,-0.2946,-1.3576,0.0693,-0.2866,-2.0752,-2.2937,9.8372,1.3351,1.9675,-0.9784,3.8216,1.6053,6.989,7.8701,-0.0363,0.2219,2.8835,1.6729,-4.4918,8.568,0.722917,0,1698652001,42
-0.0619,0.554,-0.3035,-1.279,0.0737,-0.6399,-2.2147,-2.325,9.6266,1.2535,1.9096,-1.1148,3.7954,1.7408,6.9005,7.738,-0.0912,0.4517,2.9022,1.6346,-4.3863,8.4131,0.549876,0,1698652001,43
-0.0588,0.5312,-0.3124,-1.195,0.1444,-1.0533,-2.3349,-2.3383,9.5143,1.2005,1.8434,-1.1134,3.7852,1.8602,6.7995,7.6022,-0.1517,0.5842,2.9287,1.6037,-4.2824,8.2688,0.330667,0,1698652001,43
-0.0561,0.4982,-0.3204,-1.1206,0.184,-1.4281,-2.3977,-2.3281,9.3878,1.1222,1.7417,-1.0773,3.79,1.9447,6.7057,7.4599,-0.2354,0.7144,2.9518,1.6059,-4.1803,8.127,0.053489,0,1698652001,44
-0.0536,0.441,-0.3274,-1.0454,0.2472,-1.6961,-2.4294,-2.1878,9.4082,0.8855,1.6047,-1.0135,3.7538,1.978,6.6166,7.3196,-0.3004,0.8504,2.9681,1.605,-4.1005,8.0078,-0.180659,0,1698652002,45
-0.0516,0.3739,-0.3334,-0.9355,0.2707,-1.9197,-2.4454,-1.9653,9.3171,0.7217,1.4677,-0.9605,3.6634,1.9851,6.5135,7.1827,-0.3108,0.9169,2.9867,1.6099,-4.039,7.8869,-0.363485,0,1698652002,46
-0.05,0.3179,-0.338,-0.8153,0.1841,-2.1453,-2.4537,-1.7825,9.1106,0.683,1.3356,-0.9015,3.5148,1.9869,6.4192,7.0677,-0.3189,0.9983,2.9764,1.6366,-3.968,7.7807,-0.505588,0,1698652002,47
-0.0483,0.2862,-0.3422,-0.7121,0.1271,-2.3572,-2.4541,-1.6751,9.2853,0.5663,1.1811,-0.8914,3.3218,1.9894,6.3521,6.957,-0.3303,1.0659,2.9147,1.6361,-3.8891,7.6878,-0.615974,0,1698652002,47
-0.0463,0.2691,-0.346,-0.6197,0.0129,-2.5312,-2.434,-1.5301,9.218,0.5072,1.0091,-0.8802,3.1225,2.0538,6.3128,6.8574,-0.3486,1.1166,2.8353,1.6335,-3.8302,7.6469,-0.701715,0,1698652002,48
-0.0431,0.2772,-0.3489,-0.5148,-0.023,-2.6552,-2.4039,-1.2628,9.0349,0.4124,0.8184,-0.8579,2.9268,2.1475,6.2898,6.7619,-0.3533,1.1808,2.7446,1.6299,-3.8077,7.6442,-0.768309,0,1698652002,49
-0.0388,0.3096,-0.3505,-0.4083,-0.0005,-2.7584,-2.3183,-1.1041,9.0964,0.3235,0.6268,-0.8217,2.7398,2.2279,6.2737,6.6655,-0.3059,1.1547,2.6563,1.5824,-3.7859,7.609,-0.820022,0,1698652002,50
-0.0339,0.3368,-0.3509,-0.3178,-0.053,-2.7857,-2.1529,-1.0425,9.0635,0.2935,0.478,-0.6821,2.5716,2.287,6.2624,6.5917,-0.2555,1.0953,2.5732,1.5426,-3.7792,7.6071,-0.860155,0,1698652002,50
-0.029,0.3598,-0.3507,-0.2376,-0.1849,-2.714,-1.9222,-0.8624,9.0753,0.2092,0.3522,-0.6162,2.4324,2.3098,6.2578,6.5299,-0.235,1.0781,2.4823,1.5371,-3.7694,7.6612,-0.891265,0,1698652002,51
-0.0242,0.3801,-0.3506,-0.1856,-0.4007,-2.6592,-1.68,-0.7401,9.1128,0.1729,0.2332,-0.5923,2.2962,2.3231,6.266,6.4773,-0.2217,1.0426,2.4091,1.5328,-3.7281,7.7109,-0.915379,0,1698652002,52
-0.0186,0.4148,-0.3504,-0.1546,-0.5811,-2.6115,-1.4603,-0.7414,9.0088,0.1899,0.1211,-0.5737,2.1469,2.3269,6.293,6.426,-0.2343,0.9793,2.365,1.5292,-3.6651,7.7354,-0.934125,0,1698652002,53
-0.0127,0.4457,-0.3498,-0.0929,-0.8337,-2.456,-1.2616,-0.7138,9.0101,0.0272,-0.0008,-0.59,1.9781,2.3326,6.3353,6.3752,-0.2962,0.9181,2.3325,1.5433,-3.5931,7.7753,-0.948754,0,1698652002,53
-0.0073,0.4449,-0.3482,-0.0084,-1.1407,-2.3701,-1.0364,-0.7265,9.071,0.001,-0.1331,-0.5958,1.7805,2.3474,6.3813,6.3521,-0.3749,0.8757,2.3004,1.575,-3.5436,7.8217,-0.960174,0,1698652002,54
-0.0021,0.4583,-0.3451,0.074,-1.5113,-2.3307,-0.8028,-0.7843,9.0135,0.0967,-0.2818,-0.6148,1.5564,2.3904,6.4245,6.3696,-0.4394,0.8692,2.2618,1.666,-3.5434,7.8741,-0.969062,0,1698652002,55
0.0031,0.4565,-0.3405,0.1727,-1.7906,-2.2592,-0.5642,-0.839,8.9983,0.0687,-0.4391,-0.6287,1.3192,2.4656,6.4719,6.4092,-0.4972,0.8889,2.1808,1.7751,-3.5601,7.9482,-0.975969,0,1698652002,56
0.0078,0.4177,-0.3341,0.2791,-1.8549,-2.2335,-0.2818,-0.8915,9.0992,0.1389,-0.5817,-0.6258,1.0906,2.5058,6.5331,6.4458,-0.5685,0.9587,2.0326,1.843,-3.5634,8.0152,-0.981334,0,1698652002,57
0.0122,0.3956,-0.3267,0.3535,-1.7652,-2.1436,-0.0317,-0.9886,9.1386,0.2369,-0.7036,-0.6586,0.8799,2.5389,6.5868,6.4759,-0.6409,1.0675,1.8058,1.8731,-3.5906,8.0832,-0.985501,0,1698652002,57
0.017,0.4259,-0.32,0.4061,-1.6938,-2.0193,0.143,-1.0271,9.078,0.3251,-0.7948,-0.7632,0.6966,2.6033,6.6343,6.5118,-0.6929,1.1468,1.4908,1.8593,-3.6443,8.171,-0.988738,0,1698652002,58
0.0222,0.4836,-0.3138,0.4463,-1.4739,-1.9372,0.2829,-1.0688,8.9781,0.469,-0.8375,-0.9153,0.5576,2.6702,6.6881,6.565,-0.7299,1.2025,1.1217,1.794,-3.7141,8.2622,-0.991252,0,1698652002,59
0.0274,0.5004,-0.308,0.4581,-1.0823,-1.8368,0.3984,-1.1129,8.9395,0.5773,-0.8188,-1.0879,0.4727,2.7248,6.7449,6.654,-0.768,1.2304,0.7344,1.6631,-3.7977,8.3675,-0.993205,0,1698652002,60
0.0321,0.4784,-0.304,0.4357,-0.86,-1.7111,0.4642,-0.9933,9.057,0.5852,-0.7675,-1.2612,0.4442,2.7916,6.8098,6.7795,-0.801,1.2197,0.3612,1.5059,-3.8872,8.4633,-0.994722,0,1698652002,60
0.0365,0.4435,-0.3017,0.3887,-0.6916,-1.5751,0.5068,-0.8923,9.2141,0.539,-0.7218,-1.3353,0.4383,2.8865,6.8773,6.916,-0.8189,1.1807,0.0245,1.3525,-4.0006,8.5429,-0.995901,0,1698652002,61
0.0408,0.3995,-0.2995,0.3494,-0.5037,-1.4013,0.5288,-0.8155,9.3329,0.4622,-0.6751,-1.3417,0.426,2.9757,6.9167,7.0501,-0.8261,1.1172,-0.2678,1.1852,-4.1373,8.6289,-0.996816,0,1698652002,62
0.0448,0.3812,-0.2975,0.3132,-0.2589,-1.2646,0.5391,-0.7382,9.5061,0.3766,-0.6151,-1.3126,0.4207,3.0554,6.9422,7.1555,-0.8188,1.0133,-0.4999,1.0056,-4.263,8.6946,-0.997527,0,1698652002,63
0.0484,0.3828,-0.2959,0.2573,0.3386,-0.9729,0.5971,-0.753,9.5495,0.1732,-0.4868,-1.1353,0.4402,3.1872,6.9591,7.3262,-0.7531,0.6249,-0.7539,0.7279,-4.4118,8.7492,-0.998079,0,1698652002,64
0.0537,0.3933,-0.2952,0.1927,0.4849,-0.8586,0.5879,-0.7683,9.5081,-0.0152,-0.4458,-0.808,0.4608,3.2277,6.9605,7.3567,-0.7153,0.3574,-0.7982,0.6365,-4.4102,8.7527,-0.998431,0,1698652002,64
0.0597,0.4168,-0.2952,0.1387,0.6266,-0.8422,0.5901,-0.945,9.4631,-0.1401,-0.4156,-0.5393,0.5133,3.2063,6.9706,7.3427,-0.6868,0.0746,-0.8079,0.5863,-4.3817,8.7405,-0.998187,0,1698652002,65
0.0642,0.4319,-0.2952,0.0922,0.7818,-0.8593,0.6336,-1.2314,9.49,-0.2986,-0.4152,-0.3792,0.5772,3.1279,6.983,7.3248,-0.6731,-0.2106,-0.7814,0.6013,-4.336,8.7062,-0.99192,0,1698652002,66
0.0681,0.4189,-0.2952,0.06,0.8538,-0.9587,0.6835,-1.5442,9.6463,-0.4693,-0.4515,-0.363,0.6089,3.0536,6.9739,7.3219,-0.6881,-0.4688,-0.7242,0.6796,-4.3032,8.6918,-0.968155,0,1698652002,67
0.0719,0.4104,-0.2953,0.0531,0.8518,-1.1645,0.7189,-1.8591,9.7683,-0.5701,-0.5036,-0.4442,0.5943,3.021,6.9551,7.3517,-0.733,-0.6839,-0.6592,0.8079,-4.3192,8.713,-0.954823,0,1698652002,67
0.0761,0.4062,-0.2953,0.0491,0.8518,-1.1645,0.7189,-1.8591,9.7683,-0.5701,-0.5036,-0.4442,0.5943,3.021,6.9551,7.3517,-0.733,-0.6839,-0.6592,0.8079,-4.3192,8.713,-0.96297,0,1698652002,68
0.0798,0.3692,-0.2951,0.0422,0.9499,-1.4667,0.7439,-2.144,9.8251,-0.5802,-0.5696,-0.601,0.5455,3.0246,6.9618,7.4508,-0.7985,-0.8356,-0.5952,0.9697,-4.4024,8.781,-0.970282,0,1698652002,69
0.0821,0.3208,-0.2941,0.0597,1.1739,-2.0697,0.7448,-2.1777,10.0861,-0.4555,-0.7076,-0.8391,0.3672,3.175,7.0431,7.765,-0.9685,-0.7605,-0.467,1.3213,-4.7475,9.0517,-0.976873,0,1698652002,70
0.0828,0.2648,-0.2914,0.1132,1.0962,-2.3769,0.6523,-2.02,10.4784,-0.4075,-0.7588,-0.889,0.2592,3.2824,7.1237,7.9284,-1.0471,-0.6249,-0.4442,1.4461,-4.9094,9.2518,-0.982035,0,1698652002,71
0.0827,0.208,-0.287,0.1912,1.1508,-2.6556,0.5567,-1.8908,10.958,-0.2372,-0.7806,-1.0913,0.171,3.361,7.2666,8.1096,-1.1286,-0.4063,-0.4494,1.5287,-5.0741,9.4617,-0.986046,0,1698652002,71
0.0824,0.1673,-0.2802,0.3208,1.3057,-2.7817,0.5096,-1.5675,10.96,0.1608,-0.7992,-1.1343,0.0906,3.4124,7.4222,8.3589,-1.2038,-0.1104,-0.5038,1.5627,-5.2649,9.6601,-0.989161,0,1698652002,72
0.0821,0.1253,-0.2712,0.4534,1.5821,-2.6602,0.3317,-0.5481,10.8902,1.2356,-0.8388,-1.1115,-0.1466,3.4587,7.5959,8.9585,-1.3302,0.322,-0.877,1.454,-5.7452,9.9772,-0.99158,0,1698652002,73
0.0806,0.0321,-0.2625,0.5174,1.6433,-2.3907,0.1559,0.0597,11.2698,1.51,-0.8478,-1.1679,-0.2771,3.4445,7.639,9.1916,-1.3305,0.2687,-1.1554,1.3151,-6.051,10.1061,-0.99341,0,1698652002,74
0.0766,-0.0947,-0.256,0.5282,1.8723,-2.0476,0.0424,0.4694,11.6285,1.7301,-0.8583,-1.1819,-0.3845,3.4281,7.6529,9.3525,-1.272,0.1165,-1.4288,1.1741,-6.2981,10.1822,-0.99026,0,1698652002,74
0.0706,-0.2223,-0.251,0.5094,2.1746,-1.6149,-0.0091,0.6402,11.7243,1.9198,-0.8775,-1.0896,-0.4713,3.3897,7.6147,9.3894,-1.1584,-0.0886,-1.6778,1.0729,-6.4321,10.1588,-0.887878,0,1698652002,75
0.0617,-0.4158,-0.2472,0.4691,2.2995,-1.1322,0.0003,0.6255,11.6325,1.9802,-0.9069,-0.8637,-0.548,3.2708,7.5111,9.3003,-1.0079,-0.2803,-1.9002,1.0383,-6.4431,10.0007,-0.5967,0,1698652002,76
0.0499,-0.6137,-0.2435,0.4585,2.2057,-0.713,0.0578,0.4677,11.3557,2.0248,-0.9689,-0.5297,-0.6247,3.0714,7.3325,9.1265,-0.8374,-0.4139,-2.1053,1.0529,-6.3458,9.7158,-0.248053,0,1698652002,77
0.0364,-0.7709,-0.2389,0.4878,2.045,-0.39,0.1213,0.1965,10.9394,2.0067,-1.0546,-0.0522,-0.7218,2.7988,7.073,8.871,-0.658,-0.452,-2.303,1.087,-6.177,9.3271,0.029686,0,1698652002,78
0.0214,-0.9272,-0.2332,0.5034,1.9449,-0.174,0.2107,-0.2221,10.5623,1.9951,-1.1654,0.4662,-0.8534,2.4535,6.7487,8.5785,-0.4821,-0.3939,-2.4932,1.1094,-5.9652,8.8691,0.246186,0,1698652002,78
0.0052,-1.0714,-0.2273,0.4898,1.8245,-0.0361,0.3372,-0.6068,10.2686,2.0086,-1.295,0.9063,-1.0273,2.0757,6.3892,8.2834,-0.3164,-0.2635,-2.6707,1.1199,-5.7469,8.3961,0.41445,0,1698652002,79
-0.0119,-1.2457,-0.2207,0.5098,1.6952,0.0285,0.4814,-0.8172,9.7895,1.9821,-1.4263,1.151,-1.25,1.7299,6.0201,7.9582,-0.1733,-0.0847,-2.8171,1.1152,-5.5327,7.9351,0.545175,0,1698652002,80
-0.0298,-1.4016,-0.2127,0.5614,1.6562,0.0394,0.6446,-0.9787,9.3433,1.8862,-1.5488,1.157,-1.5015,1.4663,5.6735,7.6811,-0.0664,0.0994,-2.9573,1.0825,-5.3118,7.5054,0.646721,0,1698652002,81
-0.0487,-1.5243,-0.2039,0.611,1.5133,-0.0203,0.7782,-1.1058,9.1513,1.8243,-1.649,0.8822,-1.7522,1.2696,5.3907,7.508,-0.0183,0.2884,-3.1215,1.0311,-5.1488,7.1399,0.725597,0,1698652002,81
-0.0673,-1.6489,-0.1947,0.652,1.301,-0.1485,0.8257,-1.1826,9.1245,1.7882,-1.7252,0.3432,-2.0108,1.1511,5.1943,7.4372,-0.0244,0.4608,-3.2977,0.9487,-5.0936,6.8909,0.786862,0,1698652002,82
-0.0853,-1.7188,-0.1856,0.6884,1.119,-0.3103,0.7833,-1.212,9.2235,1.6372,-1.757,-0.2366,-2.2833,1.1627,5.065,7.4568,-0.0734,0.6389,-3.4541,0.8547,-5.1322,6.786,0.834447,0,1698652002,83
-0.1028,-1.7135,-0.1759,0.7442,0.941,-0.5092,0.6985,-1.202,9.4305,1.5058,-1.7477,-0.7814,-2.5725,1.2866,5.0081,7.5549,-0.1686,0.8668,-3.5602,0.7756,-5.252,6.8016,0.871404,0,1698652002,84
-0.1196,-1.7095,-0.1657,0.7726,0.7499,-0.7225,0.595,-1.0531,9.7642,1.428,-1.7004,-1.2277,-2.8695,1.4893,5.0126,7.7128,-0.2817,1.0771,-3.6009,0.6888,-5.4244,6.9107,0.90004,0,1698652002,84
-0.1363,-1.7016,-0.1562,0.8066,0.6092,-0.9223,0.5053,-0.8623,10.032,1.467,-1.6049,-1.5112,-3.1454,1.7501,5.0764,7.8833,-0.3841,1.2335,-3.5482,0.5895,-5.6126,7.081,0.919893,0,1698652002,85
-0.1525,-1.6372,-0.1468,0.8396,0.3375,-1.0853,0.4667,-0.2506,10.4015,1.5513,-1.3511,-1.4369,-3.6256,2.2539,5.3548,8.2579,-0.5912,1.262,-3.0784,0.4696,-5.9051,7.535,0.930392,0,1698652002,86
-0.1761,-1.5801,-0.1338,0.8256,0.109,-1.0303,0.5463,0.0828,10.4235,1.569,-1.2449,-1.2196,-3.8264,2.4306,5.5109,8.3738,-0.6748,1.1462,-2.8151,0.4735,-5.9776,7.7257,0.939118,0,1698652002,87
-0.2,-1.5161,-0.1214,0.8112,-0.1469,-0.927,0.6745,0.3674,10.3428,1.6193,-1.1812,-0.9706,-3.9858,2.5636,5.6116,8.4227,-0.7405,1.0052,-2.5807,0.522,-6.0252,7.872,0.950295,0,1698652002,88
-0.2153,-1.4372,-0.1136,0.8137,-0.3132,-0.7837,0.8176,0.5983,10.2275,1.6781,-1.1581,-0.6895,-4.1028,2.6364,5.6713,8.4331,-0.7745,0.8343,-2.3851,0.6294,-6.0346,7.989,0.957988,0,1698652002,88
-0.2295,-1.395,-0.1066,0.8221,-0.4416,-0.5548,0.9773,0.7919,10.0414,1.7116,-1.1538,-0.3765,-4.1809,2.6615,5.6715,8.4102,-0.7703,0.6632,-2.2195,0.7928,-6.0106,8.0573,0.964304,0,1698652002,89
-0.2434,-1.3542,-0.0999,0.7948,-0.5038,-0.2696,1.1823,0.9126,9.7047,1.7664,-1.1284,-0.0567,-4.2177,2.6568,5.5952,8.3229,-0.7176,0.5243,-2.0968,0.9491,-5.9725,8.0654,0.971967,0,1698652002,90
-0.2563,-1.323,-0.0935,0.756,-0.4916,-0.1504,1.414,0.9991,9.4699,1.7598,-1.0813,0.2403,-4.2182,2.6161,5.4868,8.1926,-0.6263,0.4301,-2.0177,1.0956,-5.9213,8.0126,0.978169,0,1698652002,91
-0.2679,-1.3022,-0.0872,0.7345,-0.5247,0.07,1.6383,1.0321,9.3801,1.6627,-1.0294,0.5144,-4.2143,2.5307,5.3796,8.0577,-0.5094,0.4055,-1.9733,1.2236,-5.8416,7.9149,0.983042,0,1698652002,91
-0.278,-1.2684,-0.0807,0.71,-0.5471,0.5293,1.8397,0.9983,9.2365,1.5767,-0.9976,0.7333,-4.2308,2.3998,5.2925,7.9152,-0.3794,0.4367,-1.9635,1.2821,-5.7407,7.8086,0.986828,0,1698652002,92
-0.2868,-1.1811,-0.0742,0.6891,-0.4954,0.9405,2.0192,0.9526,9.1476,1.4614,-0.9559,0.8445,-4.2514,2.2692,5.1998,7.7482,-0.2631,0.5205,-1.9704,1.2954,-5.6322,7.6966,0.989765,0,1698652002,93
-0.2944,-1.0566,-0.0676,0.6961,-0.4373,1.2958,2.1808,0.8723,9.1735,1.342,-0.8629,0.907,-4.2622,2.2113,5.1102,7.5978,-0.1703,0.647,-1.9724,1.281,-5.5166,7.5596,0.992046,0,1698652002,94
-0.3008,-0.9507,-0.0604,0.7325,-0.3232,1.593,2.3361,0.7433,9.1592,1.2767,-0.7311,0.9462,-4.2698,2.212,5.0432,7.5107,-0.1032,0.7853,-1.9373,1.2374,-5.4062,7.4137,0.993822,0,1698652002,95
-0.3059,-0.8483,-0.0531,0.761,-0.2661,1.892,2.4414,0.6965,9.1544,1.1328,-0.5887,0.9451,-4.2765,2.2345,4.9883,7.465,-0.0597,0.9047,-1.8401,1.1843,-5.3229,7.2782,0.995201,0,1698652002,95
-0.3099,-0.7404,-0.0458,0.7813,-0.3283,2.1575,2.4781,0.7187,9.1914,0.9434,-0.461,0.9502,-4.2954,2.2656,4.9493,7.4297,-0.0241,0.9531,-1.7024,1.1136,-5.256,7.1625,0.996273,0,1698652002,96
-0.3127,-0.6069,-0.0387,0.7825,-0.2982,2.293,2.4554,0.6868,9.238,0.8718,-0.3558,1.0121,-4.3117,2.3045,4.9348,7.4226,0.0214,0.8287,-1.5716,1.0457,-5.2188,7.0718,0.997105,0,1698652002,97
-0.3139,-0.4662,-0.0322,0.7689,-0.3157,2.3591,2.3466,0.685,9.2442,0.9016,-0.2708,1.1863,-4.3108,2.3435,4.9578,7.4567,0.0524,0.6768,-1.4445,1.0167,-5.2273,7.0155,0.997751,0,1698652002,98
-0.3144,-0.3575,-0.0254,0.75,-0.4853,2.47,2.1956,0.7379,9.2371,0.8267,-0.2055,1.4393,-4.2964,2.3711,4.9981,7.5484,0.057,0.5656,-1.2911,1.0131,-5.2433,6.9938,0.998253,0,1698652002,98
-0.3146,-0.2671,-0.019,0.7132,-0.6494,2.5732,2.0042,0.7725,9.3654,0.6458,-0.1787,1.6255,-4.264,2.3805,5.019,7.6236,0.104,0.3999,-1.1286,1.047,-5.2773,7.0049,0.998643,0,1698652002,99
-0.3146,-0.1859,-0.014,0.6783,-0.8203,2.5955,1.7473,0.7182,9.5408,0.485,-0.1911,1.713,-4.2388,2.3643,5.0135,7.6491,0.1711,0.2798,-0.9972,1.0965,-5.3123,7.0234,0.998946,0,1698652002,0
-0.3146,-0.1442,-0.0095,0.6363,-1.0706,2.5769,1.4421,0.6578,9.5917,0.3465,-0.2238,1.7214,-4.2183,2.3683,5.0211,7.6978,0.2122,0.2257,-0.8986,1.147,-5.3251,7.0098,0.999182,0,1698652002,1
-0.3146,-0.1225,-0.0049,0.5841,-1.3392,2.5344,1.1147,0.6285,9.5703,0.2234,-0.2662,1.7219,-4.1522,2.4278,5.0494,7.7747,0.2442,0.1581,-0.8186,1.2085,-5.3131,6.9799,0.999364,0,1698652002,2
-0.3144,-0.102,-0.0014,0.5405,-1.5947,2.4554,0.759,0.5692,9.5542,0.1193,-0.3136,1.932,-4.0778,2.4604,5.0647,7.8598,0.2613,0.0877,-0.7462,1.2575,-5.2773,6.9306,0.999506,0,1698652002,2
-0.3142,-0.0815,0.001,0.4924,-1.8145,2.3199,0.3693,0.4795,9.4789,0.1038,-0.3675,2.2144,-4.026,2.4178,5.0562,7.9226,0.2652,0.062,-0.6679,1.2822,-5.2725,6.8871,0.999616,0,1698652002,3
-0.3139,-0.0643,0.0034,0.4463,-2.0175,2.1413,-0.0245,0.3978,9.2625,0.1311,-0.4264,2.4244,-3.9482,2.3628,5.0395,7.9792,0.2461,0.0872,-0.5882,1.3079,-5.3152,6.8734,0.999702,0,1698652002,4
-0.3132,-0.0295,0.0062,0.4179,-2.2775,1.9856,-0.3968,0.3138,9.05,0.1695,-0.4662,2.5858,-3.8384,2.2904,5.0215,8.0342,0.2219,0.1613,-0.5042,1.3214,-5.4014,6.8783,0.999768,0,1698652002,5
-0.3119,0.0231,0.0098,0.4163,-2.4735,1.822,-0.7227,0.1911,8.9739,0.2136,-0.4868,2.5519,-3.6943,2.2163,4.996,8.0894,0.2014,0.2078,-0.4092,1.3145,-5.5089,6.9198,0.99982,0,1698652002,5
-0.3103,0.0705,0.0141,0.4468,-2.4877,1.6251,-0.9733,0.0613,8.9467,0.2485,-0.5114,2.407,-3.5159,2.1638,4.9724,8.1336,0.1829,0.2004,-0.2978,1.3198,-5.5833,6.9902,0.999857,0,1698652002,6
-0.3084,0.1078,0.0183,0.4564,-2.3726,1.438,-1.1406,-0.0759,8.9402,0.2924,-0.5518,2.3158,-3.3245,2.084,4.9715,8.1586,0.1694,0.1445,-0.1824,1.3255,-5.6334,7.0751,0.999874,0,1698652002,7
-0.3065,0.1324,0.0218,0.4304,-2.1783,1.2476,-1.2322,-0.1733,8.8646,0.3811,-0.5764,2.2007,-3.1222,2.0103,4.9724,8.1884,0.1529,0.0618,-0.062,1.3503,-5.6806,7.1603,0.999814,0,1698652002,8
-0.3044,0.1476,0.0253,0.412,-2.0513,1.0954,-1.2463,-0.156,8.8008,0.4459,-0.5648,1.9919,-2.8832,1.9415,4.968,8.2397,0.1589,-0.0246,0.0545,1.3757,-5.7364,7.2641,0.999535,0,1698652002,8
-0.3024,0.142,0.0292,0.415,-1.9842,1.0112,-1.1652,-0.0979,8.9424,0.4078,-0.5251,1.8426,-2.6183,1.8402,4.9948,8.3166,0.1797,-0.0892,0.1339,1.3786,-5.8317,7.4087,0.999016,0,1698652002,9
-0.3005,0.1402,0.0337,0.4229,-1.7318,0.9076,-0.9795,-0.0488,9.0742,0.4276,-0.4508,1.6686,-2.3461,1.7319,5.0605,8.4098,0.184,-0.0958,0.1658,1.3819,-5.9535,7.575,0.998474,0,1698652002,10
-0.2986,0.1532,0.0376,0.3956,-1.356,0.8176,-0.7577,0.0508,9.1219,0.4743,-0.3513,1.3613,-2.064,1.6534,5.1497,8.5295,0.1949,-0.1061,0.1624,1.3666,-6.0704,7.753,0.998115,0,1698652002,11
-0.2962,0.1837,0.0403,0.3423,-1.1296,0.8117,-0.5684,0.2113,9.2738,0.4609,-0.2664,1.0784,-1.792,1.6141,5.2506,8.6518,0.2367,-0.1755,0.1495,1.3603,-6.1774,7.9122,0.998129,0,1698652002,11
-0.293,0.23,0.0423,0.306,-1.0331,0.8727,-0.4,0.3229,9.6013,0.3689,-0.2047,0.8952,-1.527,1.6089,5.3487,8.756,0.2921,-0.2898,0.1353,1.3915,-6.2565,8.0272,0.99844,0,1698652002,12
-0.2893,0.248,0.044,0.2912,-0.8797,0.9619,-0.2403,0.412,9.7446,0.3068,-0.1525,0.793,-1.2488,1.6223,5.4247,8.8315,0.3394,-0.4034,0.1106,1.4387,-6.2929,8.0979,0.998765,0,1698652002,13
-0.2856,0.2406,0.046,0.2755,-0.6975,1.055,-0.0907,0.5608,9.6126,0.3332,-0.1256,0.706,-0.9628,1.6185,5.466,8.8672,0.3787,-0.4899,0.0658,1.4775,-6.2938,8.1135,0.999034,0,1698652002,14
-0.2825,0.241,0.0485,0.2778,-0.4572,1.1554,0.0537,0.6689,9.6034,0.2187,-0.1107,0.6136,-0.6708,1.5738,5.4567,8.8706,0.4238,-0.5733,-0.0039,1.4654,-6.2702,8.0639,0.99925,0,1698652002,14
-0.2804,0.2235,0.0514,0.2741,-0.1017,1.2582,0.176,0.6364,9.5895,0.0055,-0.0965,0.5215,-0.3596,1.4945,5.3907,8.8553,0.4766,-0.6772,-0.1006,1.3977,-6.2602,7.9785,0.999417,0,1698652002,15
-0.279,0.2025,0.0545,0.2567,0.2459,1.3899,0.2472,0.6335,9.4847,-0.1749,-0.0702,0.3945,-0.0505,1.4051,5.306,8.8397,0.539,-0.7818,-0.2235,1.2848,-6.2706,7.9101,0.999547,0,1698652002,16
-0.2777,0.2039,0.0574,0.2503,0.4197,1.5477,0.2403,0.6749,9.5329,-0.297,-0.0267,0.226,0.2193,1.314,5.2477,8.85,0.613,-0.8989,-0.3419,1.1388,-6.3033,7.899,0.999648,0,1698652002,17
-0.2755,0.2277,0.0601,0.2545,0.5257,1.6608,0.165,0.6723,9.7617,-0.2909,0.0223,0.0695,0.4281,1.2575,5.2302,8.8864,0.679,-1.0699,-0.4092,1.0176,-6.3516,7.9512,0.999727,0,1698652002,17
-0.2712,0.3097,0.0624,0.2615,0.7187,1.7223,0.0486,0.7101,9.9958,-0.1867,0.0605,-0.0307,0.5646,1.2785,5.2586,8.9539,0.7303,-1.2862,-0.3976,0.9564,-6.3878,8.057,0.999788,0,1698652002,18
-0.2644,0.428,0.064,0.2391,0.879,1.8186,-0.087,0.7173,10.2033,-0.0402,0.1046,0.1727,0.6256,1.356,5.3402,9.0649,0.7854,-1.5105,-0.3195,0.9289,-6.451,8.2279,0.999835,0,1698652002,19
-0.255,0.5392,0.0648,0.1903,0.954,1.9446,-0.2162,0.6336,10.4017,0.1737,0.2147,0.3554,0.7163,1.3937,5.4502,9.1795,0.8504,-1.7307,-0.2333,0.9238,-6.5775,8.4868,0.999872,0,1698652003,20
-0.2434,0.6938,0.065,0.1434,1.0608,2.0279,-0.3148,0.4162,10.618,0.5005,0.3829,0.1138,0.9224,1.3712,5.6131,9.362,0.9171,-1.9436,-0.1621,0.9362,-6.7264,8.8307,0.999901,0,1698652003,20
-0.2308,0.8561,0.0647,0.0889,1.1685,2.0764,-0.376,-0.0023,10.9461,0.88,0.6124,-0.2025,1.1701,1.347,5.8508,9.5919,0.9749,-2.1148,-0.0692,1.0022,-6.8588,9.2044,0.999923,0,1698652003,21
-0.2182,0.9347,0.0636,-0.0048,1.0502,2.1406,-0.3563,-0.4893,11.2424,1.3651,0.8988,-0.3826,1.3933,1.3577,6.1386,9.7585,1.0274,-2.2104,0.0702,1.1529,-6.9702,9.5663,0.99994,0,1698652003,22
-0.2073,0.9339,0.0595,-0.1486,1.1032,2.164,-0.1671,-1.0645,11.4752,1.9254,1.1904,-0.4262,1.616,1.3862,6.4605,9.8529,1.0801,-2.1857,0.2262,1.3314,-7.0228,9.8712,0.999953,0,1698652003,23
-0.1983,0.89,0.0509,-0.3686,1.3795,2.1054,0.0889,-1.6006,11.6186,2.3259,1.439,-0.3757,1.876,1.3985,6.7672,9.8375,1.1373,-1.9953,0.3516,1.4719,-6.973,10.0839,0.999964,0,1698652003,23
-0.1916,0.846,0.0388,-0.6397,1.4936,2.0012,0.3099,-1.8435,11.5843,2.4887,1.6014,-0.2751,2.1605,1.4244,6.9859,9.6849,1.2056,-1.6906,0.4295,1.541,-6.8141,10.185,0.999972,0,1698652003,24
-0.1869,0.7601,0.0244,-0.8349,1.3581,1.8955,0.5531,-1.7989,11.5222,2.5403,1.7045,-0.1399,2.4625,1.4533,7.0953,9.3994,1.2637,-1.3209,0.4831,1.5121,-6.5244,10.1382,0.999978,0,1698652003,25
-0.1844,0.6377,0.0086,-0.9428,1.1327,1.7955,0.8111,-1.7158,11.5476,2.5629,1.7983,0.024,2.7857,1.4666,7.1141,8.9963,1.2901,-0.8966,0.5443,1.3883,-6.1177,9.9321,0.999983,0,1698652003,26
-0.1834,0.5233,-0.0083,-1.0927,1.2286,1.7382,1.0328,-1.6564,11.6484,2.4606,1.8728,0.2373,3.1083,1.4714,7.0682,8.5184,1.3327,-0.5628,0.6286,1.1842,-5.658,9.6218,0.999987,0,1698652003,27
-0.1827,0.4245,-0.026,-1.2679,1.3125,1.9375,1.1939,-1.4269,11.4394,2.4417,1.9205,0.5206,3.4083,1.4625,6.9856,8.0178,1.394,-0.3154,0.7298,0.9278,-5.1878,9.2518,0.99999,0,1698652003,27
-0.1807,0.3935,-0.0441,-1.3966,1.1433,2.0957,1.2721,-0.9913,10.8034,2.5145,1.9413,0.8335,3.7018,1.4281,6.876,7.5568,1.4467,-0.1267,0.8527,0.6511,-4.7224,8.856,0.999992,0,1698652003,28
-0.1761,0.4235,-0.063,-1.4706,0.9471,2.0328,1.2341,-0.4634,10.214,2.4387,1.9796,1.0817,4.027,1.3375,6.7574,7.1742,1.5047,-0.1105,1.0155,0.3622,-4.2933,8.4819,0.999994,0,1698652003,29
-0.1694,0.4714,-0.0807,-1.5339,0.8424,1.972,1.098,-0.0734,9.7706,2.2964,2.0179,1.2106,4.3596,1.1854,6.664,6.889,1.554,-0.2556,1.2067,0.1116,-3.971,8.1533,0.999995,0,1698652003,30
-0.1624,0.5349,-0.0971,-1.6202,0.7884,1.964,0.9326,0.2073,9.4936,2.122,2.017,1.2246,4.6316,0.9865,6.5999,6.7348,1.5922,-0.5242,1.4158,-0.0597,-3.7569,7.8799,0.999996,0,1698652003,30
-0.1551,0.5813,-0.1137,-1.696,0.628,1.9859,0.6934,0.4342,9.5908,1.9869,2.0222,1.2431,4.779,0.8007,6.5711,6.7225,1.6279,-0.9067,1.6489,-0.1354,-3.6351,7.6771,0.999997,0,1698652003,31
-0.1473,0.5956,-0.1296,-1.7256,0.3926,1.9808,0.3576,0.4939,9.9347,1.8696,2.0672,1.2473,4.7767,0.6772,6.581,6.8258,1.6659,-1.3615,1.9288,-0.1092,-3.6112,7.5688,0.999998,0,1698652003,32
-0.1395,0.6322,-0.1452,-1.7275,0.151,1.9836,-0.008,0.2318,10.4769,1.6534,2.1695,1.277,4.6156,0.6351,6.6408,7.0506,1.6715,-1.7573,2.2553,0.0429,-3.6764,7.5745,0.999998,0,1698652003,33
-0.1317,0.677,-0.161,-1.691,0.011,2.0096,-0.3892,-0.1516,11.0105,1.3967,2.3222,1.3836,4.3226,0.6547,6.7407,7.3027,1.6103,-1.9812,2.5659,0.3135,-3.7879,7.6781,0.999999,0,1698652003,33
-0.1239,0.7077,-0.1766,-1.6595,0.0207,2.0461,-0.7577,-0.4658,11.0826,1.2487,2.4152,1.3487,4.0208,0.6633,6.8651,7.5073,1.4979,-2.0324,2.8141,0.6078,-3.9146,7.8422,0.999999,0,1698652003,34
-0.116,0.7296,-0.192,-1.6547,0.0385,2.0292,-1.1103,-0.6855,10.7486,1.2625,2.4083,1.2382,3.7745,0.683,7.0162,7.678,1.3561,-1.9648,2.9966,0.8845,-4.047,8.0298,0.999999,0,1698652003,35
-0.1082,0.7429,-0.2064,-1.5781,-0.0039,1.9206,-1.4235,-0.8598,10.4264,1.3278,2.3475,1.0884,3.5653,0.7366,7.1531,7.798,1.194,-1.7939,3.1077,1.1427,-4.1664,8.1996,0.999999,0,1698652003,36
-0.1005,0.7507,-0.2198,-1.5011,-0.0505,1.7358,-1.682,-1.1155,10.2636,1.3505,2.2193,0.8919,3.4037,0.8498,7.2309,7.8619,1.034,-1.5776,3.1539,1.3427,-4.2792,8.3355,1,0,1698652003,36
-0.0928,0.756,-0.2322,-1.4489,-0.0517,1.5325,-1.888,-1.3895,10.0767,1.3231,2.0413,0.7402,3.3088,1.0129,7.2298,7.8692,0.9046,-1.3517,3.1489,1.4839,-4.378,8.4391,1,0,1698652003,37
-0.0858,0.7382,-0.2439,-1.3907,-0.0373,1.3125,-2.0181,-1.5967,9.885,1.2853,1.8264,0.5456,3.2675,1.1665,7.18,7.8292,0.799,-1.0773,3.099,1.5682,-4.4433,8.4948,1,0,1698652003,38
-0.0794,0.6864,-0.2549,-1.3377,-0.0449,1.0495,-2.0971,-1.7721,9.7618,1.2822,1.627,0.2002,3.2661,1.2966,7.081,7.7252,0.7084,-0.7926,3.0321,1.5837,-4.4552,8.5068,1,0,1698652003,39
-0.0734,0.6481,-0.2654,-1.2944,-0.0551,0.7685,-2.1362,-1.9594,9.6268,1.3324,1.5174,-0.2309,3.2624,1.4056,6.9466,7.5746,0.6296,-0.5621,2.9853,1.5653,-4.4158,8.4824,1,0,1698652003,39
-0.0681,0.6091,-0.2753,-1.2685,-0.0204,0.4702,-2.1376,-2.1115,9.555,1.3358,1.4944,-0.4711,3.2102,1.5202,6.8299,7.4216,0.5564,-0.418,2.9728,1.5478,-4.3553,8.4041,0.999995,0,1698652003,40
-0.0637,0.5558,-0.2848,-1.2046,0.0006,0.1609,-2.1345,-2.1928,9.4598,1.2573,1.5396,-0.4191,3.1244,1.6173,6.7334,7.2782,0.4859,-0.3249,2.9954,1.5507,-4.3019,8.303,0.999588,0,1698652003,41
-0.0596,0.522,-0.2939,-1.104,-0.0384,-0.1347,-2.1414,-2.2011,9.3294,1.1775,1.6029,-0.3548,3.0595,1.6865,6.6589,7.1635,0.4269,-0.2874,3.0369,1.5749,-4.2267,8.1889,0.954765,0,1698652003,42
-0.0555,0.5,-0.3023,-1.0509,-0.0909,-0.4683,-2.1775,-2.2408,9.2711,1.1049,1.6401,-0.3654,3.0287,1.7349,6.6027,7.1002,0.3683,-0.243,3.0853,1.6205,-4.139,8.0922,0.803811,0,1698652003,42
-0.0519,0.4778,-0.3101,-1.0024,-0.0857,-0.8364,-2.214,-2.3469,9.3021,1.0303,1.6553,-0.4077,3.0098,1.7666,6.5764,7.0239,0.2904,-0.1182,3.1237,1.6871,-4.0518,8.0241,0.614565,0,1698652003,43
-0.0491,0.4465,-0.3167,-0.9028,-0.1225,-1.1591,-2.2449,-2.3219,9.3576,0.874,1.5999,-0.5641,2.9986,1.803,6.5857,6.9455,0.2162,0.0452,3.1314,1.7554,-3.9686,7.9581,0.467957,0,1698652003,44
-0.0471,0.3986,-0.3219,-0.8258,-0.1665,-1.4795,-2.28,-2.248,9.2912,0.7563,1.4809,-0.6933,3.024,1.8915,6.5905,6.9193,0.1552,0.2352,3.1025,1.8128,-3.9053,7.9159,0.26748,1,1698652003,45
-0.0451,0.3518,-0.3265,-0.747,-0.1683,-1.8247,-2.3022,-2.1633,9.3495,0.669,1.3374,-0.7451,3.0821,1.9706,6.6065,6.9051,0.1129,0.3828,3.0289,1.8287,-3.8449,7.8836,0.005498,1,1698652003,45
-0.0422,0.336,-0.3302,-0.6357,-0.1492,-2.1389,-2.2938,-2.1293,9.2715,0.5356,1.151,-0.7631,3.1246,2.0029,6.6309,6.8984,0.1099,0.471,2.9197,1.8328,-3.8074,7.8271,-0.218107,1,1698652003,46
-0.0386,0.3645,-0.3323,-0.5147,-0.1054,-2.3198,-2.2217,-2.0161,8.9159,0.3794,0.9431,-0.726,3.1185,2.0066,6.6213,6.8634,0.0931,0.6043,2.7838,1.8448,-3.787,7.7909,-0.392612,1,1698652003,47
-0.0344,0.4001,-0.3327,-0.4037,-0.0765,-2.4203,-2.1061,-1.7923,8.738,0.2695,0.7433,-0.721,3.0634,1.9648,6.5698,6.7797,0.0587,0.7309,2.6279,1.8245,-3.7496,7.7726,-0.528191,1,1698652003,48
-0.0303,0.414,-0.3324,-0.316,-0.0523,-2.5674,-1.9796,-1.6062,8.803,0.274,0.5676,-0.7623,2.9891,1.9356,6.5447,6.7141,0.0355,0.807,2.4438,1.7951,-3.6876,7.7205,-0.633506,1,1698652003,48
-0.0261,0.4199,-0.3322,-0.2547,-0.1546,-2.7217,-1.8651,-1.4229,8.9355,0.2358,0.3758,-0.8941,2.9178,1.9626,6.5509,6.6433,-0.0184,0.9019,2.2616,1.7965,-3.6181,7.7028,-0.715307,1,1698652003,49
-0.021,0.4461,-0.3319,-0.2031,-0.3644,-2.8416,-1.7567,-1.2776,9.0032,0.1631,0.1492,-1.0689,2.853,2.0411,6.542,6.571,-0.0892,0.9952,2.1192,1.8019,-3.5756,7.7374,-0.778846,1,1698652003,50
-0.0153,0.4529,-0.3317,-0.1405,-0.5435,-2.9108,-1.6093,-1.1327,9.0242,0.1125,-0.0515,-1.1468,2.7737,2.1309,6.5453,6.5207,-0.1545,1.0439,1.9873,1.7906,-3.5439,7.7771,-0.828202,1,1698652003,51
-0.0103,0.4511,-0.3314,-0.0789,-0.5974,-2.9305,-1.4003,-1.0177,9.1418,0.0753,-0.2363,-1.2916,2.6695,2.2006,6.5679,6.4891,-0.2171,1.0501,1.8695,1.7918,-3.5217,7.8191,-0.866543,1,1698652003,52
-0.0059,0.4605,-0.3307,-0.0312,-0.6819,-2.9509,-1.1408,-0.9161,9.2714,0.1034,-0.4208,-1.4807,2.5357,2.2722,6.6015,6.5039,-0.2828,1.0677,1.7721,1.8111,-3.5304,7.8817,-0.896333,0,1698652003,52
-0.0009,0.4856,-0.3292,0.019,-0.9154,-2.925,-0.8753,-0.8086,9.2779,0.1177,-0.5913,-1.6004,2.3696,2.3721,6.6346,6.5384,-0.3534,1.1027,1.6938,1.8343,-3.5495,7.9517,-0.919478,0,1698652003,53
0.0044,0.4944,-0.3268,0.0909,-1.1122,-2.8469,-0.6197,-0.7555,9.244,0.0852,-0.7341,-1.6414,2.186,2.4724,6.6629,6.5539,-0.4227,1.1308,1.6399,1.8511,-3.5664,8.0064,-0.937456,0,1698652003,54
0.0095,0.4515,-0.3237,0.1453,-1.2998,-2.7426,-0.1158,-0.7492,9.1408,0.1707,-0.9579,-1.404,1.8713,2.6217,6.7424,6.6207,-0.5763,1.2082,1.522,1.8427,-3.5644,8.0679,-0.95142,0,1698652003,55
0.0144,0.4382,-0.3198,0.1957,-1.3869,-2.6575,0.0853,-0.7773,9.0688,0.2603,-1.0452,-1.2877,1.7342,2.6575,6.7782,6.6716,-0.6708,1.2877,1.4425,1.8245,-3.6031,8.0966,-0.962267,0,1698652003,55
0.019,0.4509,-0.3154,0.2607,-1.4161,-2.5224,0.1946,-0.8026,9.1128,0.2653,-1.1002,-1.1803,1.6081,2.7003,6.7881,6.7135,-0.7485,1.3554,1.3143,1.7972,-3.6612,8.1328,-0.970691,0,1698652003,56
0.0234,0.4314,-0.3102,0.3193,-1.288,-2.3962,0.2565,-0.8714,9.2614,0.2948,-1.1191,-1.1106,1.494,2.7511,6.7819,6.7623,-0.7927,1.3696,1.1235,1.7383,-3.7283,8.1711,-0.977235,0,1698652003,57
0.0275,0.4082,-0.3052,0.3496,-0.9814,-2.2657,0.3029,-0.9059,9.1368,0.3866,-1.1201,-1.1902,1.3926,2.8158,6.7715,6.8126,-0.8176,1.3525,0.8926,1.6463,-3.7986,8.2093,-0.982318,0,1698652003,58
0.0314,0.4056,-0.3013,0.362,-0.739,-2.0894,0.3159,-0.7812,8.8527,0.4219,-1.0876,-1.344,1.3036,2.9047,6.7532,6.8645,-0.8523,1.3308,0.6383,1.5225,-3.8753,8.2701,-0.986266,0,1698652003,58
0.0354,0.3968,-0.2975,0.388,-0.4689,-1.9303,0.3405,-0.7834,8.5505,0.4979,-1.0232,-1.4951,1.2336,3.0005,6.7334,6.9301,-0.8997,1.2772,0.3658,1.3571,-3.9598,8.3434,-0.989332,0,1698652003,59
0.0394,0.3795,-0.2936,0.3923,-0.1262,-1.8093,0.352,-0.8124,8.4082,0.5468,-0.9443,-1.58,1.1895,3.1036,6.7327,7.0014,-0.9425,1.1453,0.1081,1.1599,-4.0602,8.4197,-0.991714,0,1698652003,60
0.0432,0.3583,-0.291,0.3404,0.1426,-1.6471,0.3651,-0.7644,8.4886,0.565,-0.8573,-1.5548,1.1637,3.2125,6.7416,7.0761,-0.9681,0.9371,-0.0929,0.9886,-4.1598,8.4821,-0.993564,0,1698652003,61
0.047,0.3582,-0.2903,0.2658,0.2363,-1.4624,0.354,-0.7033,8.8789,0.4233,-0.7506,-1.4057,1.1531,3.3101,6.7556,7.1159,-0.9811,0.7013,-0.226,0.874,-4.2321,8.5161,-0.995001,0,1698652003,61
0.0509,0.3752,-0.2904,0.2059,0.3116,-1.3538,0.3309,-0.7417,9.2863,0.2687,-0.6396,-1.1152,1.1525,3.3678,6.7791,7.1409,-0.981,0.4619,-0.2851,0.7842,-4.2826,8.5399,-0.996117,0,1698652003,62
0.0551,0.3913,-0.2906,0.1476,0.4093,-1.2124,0.3479,-0.8057,9.4363,0.1156,-0.5483,-0.7847,1.1589,3.3731,6.8014,7.1692,-0.975,0.2197,-0.2824,0.7072,-4.3085,8.5693,-0.996983,0,1698652003,63
0.0595,0.3895,-0.2908,0.102,0.4997,-1.0488,0.3892,-0.8017,9.5442,-0.1248,-0.479,-0.4829,1.1706,3.3544,6.8173,7.1748,-0.9635,-0.0357,-0.2411,0.6506,-4.3313,8.5943,-0.997647,0,1698652003,64
0.0638,0.3855,-0.291,0.0785,0.6483,-0.9542,0.4486,-0.9266,9.6238,-0.2817,-0.4338,-0.2663,1.1738,3.336,6.8225,7.18,-0.9383,-0.3168,-0.1673,0.6301,-4.353,8.6103,-0.998019,0,1698652003,64
0.0675,0.3883,-0.291,0.0663,0.7552,-0.9054,0.5254,-1.1853,9.7278,-0.4131,-0.4105,-0.1603,1.1507,3.3168,6.8148,7.2228,-0.906,-0.6229,-0.0699,0.6546,-4.3736,8.6521,-0.997452,0,1698652003,65
0.0707,0.3798,-0.2911,0.0572,0.8238,-0.9177,0.5935,-1.4632,9.8986,-0.5778,-0.4198,-0.141,1.097,3.3131,6.8157,7.3143,-0.875,-0.9339,0.0398,0.737,-4.4286,8.7182,-0.994262,0,1698652003,66
0.0743,0.3846,-0.2911,0.0443,0.8924,-1.0151,0.6175,-1.747,10.064,-0.7054,-0.4585,-0.178,1.0339,3.317,6.8501,7.438,-0.8568,-1.2011,0.154,0.883,-4.5008,8.7949,-0.9875,0,1698652003,67
0.0781,0.3856,-0.2911,0.0354,1.0096,-1.199,0.6165,-1.9767,10.2244,-0.7216,-0.5022,-0.2792,0.9645,3.3194,6.903,7.5852,-0.8666,-1.3617,0.247,1.0662,-4.5964,8.9051,-0.982622,0,1698652003,67
0.0809,0.3536,-0.291,0.0373,1.1952,-1.4236,0.6362,-2.1341,10.4189,-0.6573,-0.5429,-0.4592,0.8893,3.3478,6.9505,7.7415,-0.8861,-1.4481,0.3107,1.2486,-4.7511,9.0208,-0.982569,0,1698652003,68
0.0823,0.3044,-0.2904,0.0606,1.5583,-1.6654,0.6174,-2.1734,10.8174,-0.521,-0.5712,-0.6519,0.8266,3.4216,7.0174,7.904,-0.9072,-1.4658,0.3491,1.425,-4.9295,9.1762,-0.982423,0,1698652003,69
0.0827,0.2451,-0.2885,0.0956,1.7995,-1.8941,0.567,-2.0161,10.7401,-0.1393,-0.5999,-0.7973,0.7608,3.5269,7.1457,8.1029,-0.927,-1.391,0.3661,1.589,-5.1103,9.3688,-0.978088,0,1698652003,70
0.0825,0.1717,-0.2849,0.1709,1.6341,-1.9925,0.5074,-1.71,10.4452,0.3162,-0.6427,-0.8573,0.6808,3.6166,7.3157,8.3534,-0.9612,-1.1794,0.3632,1.7257,-5.2874,9.5491,-0.976648,0,1698652003,70
0.0823,0.1328,-0.2795,0.2947,1.3854,-2.0085,0.381,-1.3633,10.5545,0.7037,-0.6743,-0.806,0.5982,3.6537,7.463,8.642,-1.0175,-0.9043,0.3089,1.7993,-5.4676,9.7338,-0.981111,0,1698652003,71
