right_q,right_q_dot,left_q,left_q_dot,pelv_ang_1,pelv_ang_2,pelv_ang_3,pelv_acc_1,pelv_acc_1,pelv_acc_3,right_shoulder_ang_x,right_shoulder_ang_y,right_shoulder_ang_z,right_shoulder_acc_x,right_shoulder_acc_y,right_shoulder_acc_z,left_shoulder_ang_x,left_shoulder_ang_y,left_shoulder_ang_z,left_shoulder_acc_x,left_shoulder_acc_y,left_shoulder_acc_z,,,,Label
-0.2979,-0.0265,0.0177,0.1011,-1.1957,-0.0276,-0.5821,0.1558,9.6399,1.1051,0.953,0.7954,-1.0375,2.2275,4.3572,8.5745,0.2264,1.3554,-0.46,3.9109,-4.705,7.7082,0.950889,0,1698649096,0
-0.2979,-0.0272,0.0198,0.127,-1.1535,-0.0417,-0.5487,0.1333,9.5193,1.0569,1.0919,0.8066,-1.0501,2.1735,4.3479,8.5241,0.2747,1.3824,-0.489,3.9058,-4.6698,7.6983,0.938815,0,1698649096,1
-0.2979,-0.0284,0.0225,0.1676,-1.1956,-0.0364,-0.5177,0.2054,9.4863,1.0078,1.1111,0.587,-1.0624,2.1175,4.3517,8.4988,0.3541,1.4349,-0.5269,3.9251,-4.6122,7.6802,0.930397,0,1698649096,1
-0.2978,-0.0199,0.0256,0.2144,-1.2931,-0.0332,-0.5158,0.3228,9.6341,1.0003,1.0604,0.1983,-1.106,2.0833,4.3876,8.4831,0.4557,1.4629,-0.5895,3.9762,-4.5444,7.642,0.935896,0,1698649096,2
-0.2978,-0.0136,0.0286,0.2501,-1.3629,-0.0349,-0.55,0.4573,9.8681,0.9977,1.0014,-0.125,-1.1911,2.0947,4.4349,8.4859,0.5705,1.4114,-0.6825,4.0776,-4.4964,7.5977,0.947201,0,1698649096,3
-0.2978,-0.0109,0.0315,0.2779,-1.4052,-0.0362,-0.598,0.6006,9.9772,0.9754,0.9258,-0.2917,-1.2989,2.1517,4.4698,8.5074,0.6741,1.3151,-0.8084,4.2344,-4.4497,7.5365,0.95781,0,1698649096,4
-0.2978,-0.008,0.0346,0.3158,-1.4108,-0.0356,-0.6369,0.6931,9.8334,1.0543,0.8278,-0.3488,-1.3826,2.2478,4.4993,8.551,0.7282,1.2139,-0.9607,4.4073,-4.3955,7.4498,0.96677,0,1698649096,4
-0.2977,-0.0125,0.0382,0.3637,-1.375,-0.0036,-0.6629,0.7191,9.4977,1.1968,0.6682,-0.382,-1.4,2.3599,4.531,8.6103,0.7054,1.1575,-1.1625,4.5651,-4.3743,7.3612,0.97401,0,1698649096,5
-0.2977,-0.0118,0.0425,0.3987,-1.3336,0.1117,-0.6908,0.7245,9.1316,1.3083,0.3951,-0.5953,-1.3555,2.4525,4.5519,8.6523,0.6144,1.1938,-1.4386,4.6692,-4.3794,7.3016,0.979697,0,1698649096,6
-0.2976,-0.005,0.0469,0.3901,-1.2461,0.26,-0.7627,0.7693,8.9914,1.3623,0.0833,-1.0627,-1.2868,2.5234,4.5535,8.6783,0.462,1.3438,-1.7953,4.6888,-4.4054,7.2793,0.984123,0,1698649096,7
-0.2973,0.0105,0.0504,0.3536,-0.9847,0.3112,-0.8296,0.7227,9.0808,1.3938,-0.118,-1.2825,-1.1968,2.6282,4.5274,8.7137,0.2532,1.5762,-2.2233,4.5985,-4.4602,7.2929,0.987468,0,1698649096,7
-0.2958,0.0637,0.0531,0.3343,-0.6418,0.2522,-0.8901,0.4793,9.0355,1.4934,-0.1516,-0.9786,-1.0545,2.7622,4.4577,8.7506,0.022,1.7883,-2.6852,4.4279,-4.5387,7.3479,0.990074,0,1698649096,8
-0.2932,0.141,0.0554,0.3245,-0.563,0.3444,-0.9738,0.4284,8.9141,1.4684,-0.1096,-0.4852,-0.8929,2.8431,4.3697,8.8011,-0.1959,1.8678,-3.1062,4.2376,-4.6263,7.4401,0.992133,0,1698649096,9
-0.2891,0.2126,0.0578,0.3111,-0.7302,0.5268,-1.049,0.4314,9.106,1.4484,-0.1102,-0.3567,-0.7366,2.842,4.3197,8.8543,-0.3967,1.8085,-3.4127,4.0508,-4.7193,7.5849,0.99328,0,1698649096,9
-0.2825,0.3048,0.0603,0.2856,-0.8038,0.648,-1.0937,0.2207,9.545,1.589,-0.1566,-0.7205,-0.5573,2.8286,4.3196,8.9164,-0.5952,1.6909,-3.5912,3.8929,-4.7982,7.7722,0.993122,0,1698649096,10
-0.2746,0.4334,0.0626,0.2626,-0.7417,0.7533,-1.0706,0.0027,10.0865,1.6942,-0.0709,-1.0355,-0.4001,2.8786,4.3723,9.0109,-0.7784,1.5416,-3.6352,3.7911,-4.8404,7.965,0.992528,0,1698649096,11
-0.267,0.5254,0.0642,0.2366,-0.6687,0.7736,-0.998,-0.2668,10.548,1.8256,0.2301,-0.9282,-0.3113,2.9629,4.519,9.1054,-0.9199,1.3592,-3.5543,3.7555,-4.8562,8.1581,0.990977,0,1698649096,12
-0.2602,0.5363,0.0647,0.2014,-0.6793,0.7077,-0.8991,-0.5188,10.997,1.9798,0.6147,-0.59,-0.2482,3.0091,4.7425,9.1973,-1.0085,1.1254,-3.3859,3.7926,-4.8583,8.3658,0.982324,0,1698649096,12
-0.2557,0.4764,0.0646,0.1507,-0.7208,0.5695,-0.7523,-0.7235,11.3167,2.1658,0.9467,-0.278,-0.2044,3.0159,4.9821,9.336,-1.0534,0.8782,-3.1698,3.9171,-4.8534,8.5886,0.938026,0,1698649096,13
-0.2541,0.3648,0.0643,0.1014,-0.771,0.4213,-0.5702,-0.7554,11.4616,2.3849,1.1568,-0.114,-0.2146,3.0086,5.2198,9.517,-1.0585,0.7664,-2.9491,4.1026,-4.8617,8.829,0.891519,0,1698649096,14
-0.2542,0.2671,0.064,0.064,-0.8994,0.3053,-0.3784,-0.7215,11.674,2.4436,1.1888,-0.2286,-0.2652,2.9895,5.4363,9.704,-1.0436,0.9087,-2.7343,4.284,-4.8845,9.0948,0.841386,0,1698649096,14
-0.2543,0.2245,0.0633,-0.0002,-1.1653,0.3788,-0.1417,-0.6614,11.3935,2.6752,1.0994,-0.5171,-0.3096,2.9862,5.6325,9.8942,-1.0151,1.2613,-2.5376,4.4094,-4.9283,9.3481,0.677385,0,1698649096,15
-0.2543,0.1918,0.0617,-0.0686,-1.4946,0.6132,0.0439,-0.1278,10.8795,3.0321,0.9883,-0.7386,-0.333,3.0224,5.8282,10.0468,-0.929,1.6885,-2.3967,4.4155,-4.9958,9.521,0.442623,0,1698649096,16
-0.254,0.1634,0.0578,-0.1939,-1.6003,0.6597,0.0815,0.4786,10.9672,3.1569,0.9275,-0.7666,-0.3265,3.0505,5.9908,10.1273,-0.7658,2.1414,-2.3163,4.2865,-5.052,9.5864,0.312568,0,1698649096,17
-0.2534,0.152,0.0516,-0.3508,-1.5095,0.6354,0.0434,0.6914,11.3398,3.1598,0.9408,-0.5693,-0.2694,3.0069,6.0656,10.1308,-0.5701,2.6448,-2.2989,4.0425,-5.0782,9.5225,0.357005,0,1698649096,17
-0.2517,0.1719,0.0441,-0.4839,-1.5122,0.74,-0.0527,0.7618,11.4212,3.0674,0.9196,-0.2457,-0.1348,2.884,6.032,10.0122,-0.3848,3.1023,-2.3392,3.7052,-5.0778,9.3683,0.483927,0,1698649096,18
-0.2485,0.2393,0.0357,-0.6164,-1.5297,0.8469,-0.181,0.7213,11.0063,2.9705,0.8639,0.2665,0.0832,2.7113,5.8934,9.803,-0.2196,3.4211,-2.3977,3.3102,-5.059,9.1759,0.598118,0,1698649096,19
-0.2439,0.3066,0.0263,-0.6903,-1.4307,0.9461,-0.2909,0.5833,10.4462,2.8172,0.8633,0.8569,0.2942,2.4582,5.6877,9.5413,-0.0716,3.6269,-2.4491,2.89,-5.0152,8.9177,0.687289,0,1698649096,20
-0.2391,0.3382,0.0159,-0.7522,-1.2985,1.0529,-0.372,0.4057,9.9777,2.6492,0.8602,1.0862,0.4794,2.1208,5.4642,9.1889,0.0629,3.7236,-2.4933,2.5024,-4.9505,8.6102,0.756641,0,1698649096,20
-0.2351,0.3399,0.0056,-0.8225,-1.293,1.1342,-0.4358,0.1537,9.6763,2.4485,0.8511,1.0939,0.6889,1.7571,5.2428,8.8019,-0.0346,3.7059,-2.5132,2.1684,-4.8692,8.3064,0.81051,0,1698649096,21
-0.2315,0.3453,-0.0043,-0.8789,-1.4369,1.165,-0.4982,-0.1503,9.5925,2.207,1.0876,1.4552,0.8312,1.3875,5.0442,8.4494,-0.0857,3.6001,-2.4954,1.8505,-4.7749,8.0226,0.844688,0,1698649096,22
-0.2274,0.3704,-0.014,-0.9317,-1.4388,1.1045,-0.5773,-0.3974,9.3039,2.0668,1.5543,2.1807,0.905,1.0507,4.8749,8.1222,0.1645,3.3407,-2.404,1.5739,-4.6435,7.7752,0.87019,0,1698649096,22
-0.2226,0.4022,-0.0238,-0.979,-1.2281,0.9391,-0.6694,-0.6615,8.8593,1.9995,1.9185,2.6045,0.93,0.7736,4.7415,7.8539,0.484,2.8282,-2.2052,1.4152,-4.4622,7.6118,0.897694,0,1698649096,23
-0.2173,0.4424,-0.0333,-0.9854,-1.0201,0.7944,-0.747,-0.8163,8.5011,1.9647,1.9296,2.1897,0.9511,0.5501,4.6497,7.662,0.8217,2.1574,-1.9084,1.4015,-4.2782,7.5018,0.920523,0,1698649096,24
-0.2108,0.5138,-0.0422,-0.9288,-0.8244,0.6539,-0.7987,-0.8634,8.1536,2.0477,1.6143,1.1815,1.0561,0.4118,4.6305,7.5226,1.0541,1.4531,-1.5586,1.5109,-4.1244,7.4273,0.938267,0,1698649096,25
-0.2034,0.5812,-0.0497,-0.8522,-0.5515,0.4536,-0.8124,-0.9561,7.8974,2.2779,1.1947,0.1675,1.1701,0.4081,4.7112,7.4381,1.1495,0.7825,-1.2316,1.7052,-3.9991,7.4494,0.952049,0,1698649096,25
-0.1962,0.6143,-0.0557,-0.7726,-0.1861,0.2299,-0.7608,-1.0711,7.7999,2.5572,0.741,-0.6688,1.2347,0.5278,4.8777,7.43,1.1699,0.2983,-1.0201,1.9419,-3.9108,7.5873,0.962749,0,1698649096,26
-0.1895,0.6415,-0.0614,-0.719,0.1353,0.0688,-0.6714,-1.1016,7.9629,2.7996,0.3366,-1.3106,1.2253,0.7211,5.0922,7.5065,1.1806,0.1131,-0.9539,2.1404,-3.8676,7.8094,0.971016,0,1698649096,27
-0.183,0.6561,-0.068,-0.7275,0.2715,-0.0204,-0.5866,-1.0345,8.3653,2.9819,0.1052,-1.7767,1.0935,0.9538,5.3382,7.6287,1.2272,0.2172,-0.9715,2.2543,-3.837,8.0484,0.977297,0,1698649096,28
-0.1774,0.6497,-0.0758,-0.7782,0.368,-0.0889,-0.4943,-1.0318,8.7805,3.15,0.0021,-2.126,0.8975,1.181,5.5881,7.7801,1.2882,0.5333,-1.0226,2.2919,-3.8066,8.2571,0.982041,0,1698649096,28
-0.1726,0.6283,-0.0852,-0.8596,0.4164,0.0794,-0.426,-1.0235,9.1578,3.2723,-0.0797,-2.3419,0.7622,1.3827,5.7958,7.9313,1.3406,0.9143,-1.0581,2.2682,-3.7987,8.4288,0.985863,0,1698649096,29
-0.1683,0.5951,-0.0965,-0.9834,0.3629,0.1915,-0.3763,-1.0029,9.4853,3.3347,-0.0298,-2.1901,0.6163,1.5404,5.977,8.0902,1.3959,1.2102,-1.0319,2.2221,-3.7961,8.5947,0.989009,0,1698649096,30
-0.1646,0.5302,-0.1095,-1.1362,0.2677,0.0722,-0.3369,-0.9166,9.8562,3.2762,0.1827,-1.6955,0.4628,1.6129,6.1406,8.2115,1.4362,1.3821,-0.9136,2.1851,-3.7745,8.7501,0.991458,0,1698649096,30
-0.1618,0.4605,-0.1243,-1.2322,0.1673,-0.0434,-0.3328,-0.8571,10.2841,3.1856,0.4663,-1.1971,0.3667,1.5951,6.2811,8.2712,1.4352,1.4765,-0.7203,2.1687,-3.7289,8.8606,0.993358,0,1698649096,31
-0.1599,0.4061,-0.1405,-1.2752,-0.0292,-0.1374,-0.367,-0.7609,10.5614,3.1901,0.8041,-0.7392,0.2417,1.5584,6.4181,8.347,1.3866,1.554,-0.4952,2.1739,-3.6571,8.9189,0.99483,0,1698649096,32
-0.1586,0.3387,-0.1574,-1.3746,-0.428,-0.1193,-0.455,-0.4905,10.6325,3.2142,1.1057,-0.2635,0.0756,1.5499,6.5153,8.3952,1.3097,1.6108,-0.2632,2.1849,-3.5813,8.9348,0.995965,0,1698649096,33
-0.1573,0.2974,-0.1742,-1.5024,-0.8639,-0.0686,-0.5821,-0.3422,10.7943,3.1997,1.3204,0.0566,-0.1062,1.5374,6.5457,8.4061,1.2176,1.6157,-0.0464,2.1891,-3.5147,8.9293,0.996793,0,1698649096,33
-0.1557,0.2797,-0.1905,-1.5781,-1.2136,-0.0377,-0.7089,-0.3789,10.7762,3.2021,1.4701,0.2286,-0.3114,1.544,6.5105,8.4088,1.1197,1.5548,0.1407,2.175,-3.4819,8.8825,0.997166,0,1698649096,34
-0.1533,0.2752,-0.2065,-1.5713,-1.4026,-0.0222,-0.8279,-0.5086,10.543,3.1596,1.5761,0.4005,-0.5108,1.5713,6.4211,8.3739,1.0214,1.4137,0.2904,2.1504,-3.4867,8.8269,0.996365,0,1698649096,35
-0.1503,0.2952,-0.2225,-1.5256,-1.3644,-0.0477,-0.9502,-0.7121,10.503,3.0226,1.6253,0.5903,-0.6614,1.6241,6.2993,8.3231,0.9034,1.2155,0.4143,2.1223,-3.504,8.8109,0.993756,0,1698649096,36
-0.1474,0.2829,-0.2387,-1.5376,-1.2896,-0.0675,-1.0766,-0.9168,10.4692,2.9341,1.6575,0.6882,-0.7844,1.7193,6.1663,8.2932,0.7682,0.9883,0.5378,2.1116,-3.5262,8.8197,0.988355,0,1698649096,36
-0.1449,0.2433,-0.2546,-1.5554,-1.3994,-0.0266,-1.2209,-0.9698,10.4633,2.8574,1.6705,0.5905,-0.8935,1.874,6.0217,8.262,0.722,0.6916,0.6976,2.1886,-3.5358,8.8147,0.967288,0,1698649096,37
-0.1425,0.2333,-0.27,-1.5489,-1.5877,0.0068,-1.379,-0.9251,10.706,2.7069,1.6032,0.3484,-0.9842,2.1147,5.8282,8.1974,0.8651,0.3053,0.9232,2.4117,-3.4903,8.7419,0.912642,0,1698649096,38
-0.1406,0.2418,-0.285,-1.5546,-1.6437,-0.2561,-1.5077,-1.0337,10.9169,2.5456,1.3838,0.0402,-1.0206,2.3922,5.6333,8.1002,1.1466,-0.0247,1.1452,2.7585,-3.4111,8.607,0.83025,0,1698649096,38
-0.1386,0.2445,-0.2994,-1.5335,-1.6063,-0.4859,-1.6018,-1.234,10.586,2.5359,1.043,-0.2333,-0.979,2.6466,5.5067,8.0158,1.4361,-0.125,1.2725,3.1443,-3.3638,8.4416,0.773264,0,1698649096,39
-0.1363,0.2312,-0.313,-1.4964,-1.578,-0.4266,-1.7055,-1.3108,9.8663,2.725,0.6649,-0.438,-0.8632,2.831,5.4659,7.9025,1.6268,0.103,1.2896,3.4686,-3.3666,8.2623,0.78278,0,1698649096,40
-0.1331,0.2542,-0.3259,-1.4814,-1.5876,-0.3465,-1.7963,-1.1753,9.1959,2.9863,0.4846,-0.1028,-0.8908,2.9102,5.5042,7.8021,1.7153,0.6977,1.1921,3.6144,-3.3719,8.118,0.824874,0,1698649096,41
-0.1293,0.306,-0.3383,-1.4534,-1.5064,-0.2842,-1.8225,-1.0385,9.0092,3.1523,0.5184,0.7132,-0.81,2.8618,5.5422,7.7469,1.7849,1.4979,0.9783,3.543,-3.3387,8.0548,0.86282,0,1698649096,41
-0.1257,0.329,-0.3506,-1.3857,-1.1792,-0.0646,-1.8096,-1.0472,8.9906,3.2465,0.7304,1.1868,-0.4797,2.74,5.5234,7.684,1.873,2.2277,0.7194,3.3356,-3.2787,8.0509,0.893391,0,1698649096,42
-0.1226,0.3177,-0.3626,-1.3421,-1.0119,0.1716,-1.7817,-0.935,8.9319,3.1693,0.8814,1.4081,-0.2427,2.6403,5.4721,7.6263,1.9398,2.7144,0.514,3.1225,-3.2093,8.0524,0.917193,0,1698649096,43
-0.12,0.2811,-0.3743,-1.3171,-0.894,0.2145,-1.743,-0.8072,9.2411,2.8583,0.8701,1.8816,-0.1046,2.5565,5.4179,7.5684,1.9618,2.9033,0.4277,2.9548,-3.141,8.0348,0.935681,0,1698649096,43
-0.1179,0.2563,-0.3858,-1.2836,-0.8049,0.2325,-1.7035,-0.9033,9.5634,2.5494,0.9959,2.494,-0.0604,2.4233,5.3985,7.5188,1.9201,2.8796,0.4588,2.8168,-3.0746,8.0249,0.950042,0,1698649096,44
-0.1158,0.2528,-0.3968,-1.2559,-1.0178,0.2558,-1.6695,-0.9695,9.7544,2.2795,1.1643,2.8956,-0.0662,2.211,5.4401,7.4683,1.7812,2.7665,0.5561,2.7128,-3.0054,8.0397,0.961196,0,1698649096,45
-0.1135,0.2473,-0.4071,-1.2106,-1.1158,0.2756,-1.6362,-0.9668,9.7512,2.1017,1.2833,3.1018,-0.0988,1.9712,5.5499,7.4296,1.5523,2.5722,0.6812,2.6176,-2.9385,8.0704,0.96986,0,1698649096,46
-0.1115,0.2343,-0.4164,-1.1341,-1.2286,0.3302,-1.5925,-0.8079,9.4416,2.0298,1.3364,3.2756,-0.1684,1.7679,5.6991,7.4033,1.2901,2.3241,0.8116,2.5162,-2.8871,8.1194,0.976589,0,1698649096,46
-0.1098,0.2201,-0.4244,-1.0412,-1.4474,0.3845,-1.5355,-0.6895,9.3503,1.9145,1.3547,3.4055,-0.2779,1.5972,5.8411,7.4131,1.0268,2.0318,0.923,2.4146,-2.8483,8.1826,0.981816,0,1698649096,47
-0.1079,0.2217,-0.4314,-0.9416,-1.5944,0.3909,-1.458,-0.7783,9.3561,1.8085,1.3817,3.4314,-0.4029,1.4408,5.9507,7.4637,0.7542,1.6981,0.9883,2.3243,-2.8336,8.2498,0.985875,0,1698649096,48
-0.1054,0.2364,-0.4367,-0.8246,-1.7171,0.407,-1.3782,-0.7889,9.1235,1.761,1.424,3.3168,-0.5274,1.3096,6.0293,7.5092,0.487,1.4117,1.0186,2.2626,-2.8398,8.3232,0.988894,0,1698649096,49
-0.1025,0.2499,-0.4398,-0.693,-1.7604,0.4195,-1.3,-0.7338,8.8966,1.7003,1.4687,3.1052,-0.6572,1.219,6.0886,7.5496,0.2513,1.2114,1.0174,2.2228,-2.8551,8.3879,0.767991,0,1698649096,49
-0.0994,0.2566,-0.4411,-0.5539,-1.667,0.3763,-1.2001,-0.6422,8.6273,1.6702,1.5137,2.9527,-0.7854,1.1754,6.1445,7.574,0.0675,1.0354,0.9832,2.1948,-2.8686,8.435,0.373277,0,1698649096,50
-0.0958,0.277,-0.4412,-0.4232,-1.4889,0.2508,-1.0918,-0.5824,8.3912,1.6578,1.6066,2.928,-0.913,1.1417,6.209,7.5711,-0.0788,0.8841,0.9277,2.1714,-2.859,8.464,0.066671,0,1698649096,51
-0.0915,0.3345,-0.4408,-0.3147,-1.3428,0.12,-0.9634,-0.7082,8.3195,1.5119,1.7299,2.9812,-1.0165,1.0998,6.2613,7.5586,-0.2111,0.765,0.8624,2.149,-2.8144,8.4839,-0.171485,0,1698649096,51
-0.0865,0.389,-0.4404,-0.238,-1.2805,0.0594,-0.8057,-0.8513,8.1834,1.2294,1.7132,3.1069,-1.0252,1.0857,6.2757,7.5423,-0.308,0.5676,0.8058,2.1896,-2.7356,8.4794,-0.356468,0,1698649096,52
-0.0817,0.4175,-0.4401,-0.1802,-1.2167,-0.0482,-0.6193,-0.967,8.1359,0.9183,1.459,2.7845,-0.9332,1.1379,6.243,7.5261,-0.3567,0.2848,0.7498,2.347,-2.6429,8.3839,-0.500149,0,1698649096,53
-0.077,0.425,-0.4389,-0.1031,-1.2184,-0.1949,-0.4183,-1.1138,8.2658,0.6418,0.9846,1.9528,-0.7688,1.2353,6.2043,7.5004,-0.4032,0.0105,0.6493,2.5515,-2.5509,8.1969,-0.611447,0,1698649096,54
-0.0718,0.4408,-0.4353,0.009,-1.0901,-0.3668,-0.1897,-1.3572,8.1075,0.5517,0.4415,1.277,-0.5661,1.2872,6.2226,7.4714,-0.5304,-0.1837,0.445,2.7,-2.4879,7.9915,-0.697896,0,1698649096,54
-0.0657,0.47,-0.4287,0.1838,-0.7229,-0.5744,0.0713,-1.5876,7.5355,0.6113,-0.0341,1.0146,-0.372,1.2588,6.2996,7.4024,-0.7451,-0.3337,0.1049,2.7542,-2.4829,7.797,-0.765347,0,1698649096,55
-0.0591,0.4898,-0.4191,0.3926,-0.3192,-0.7808,0.3465,-1.7052,6.9987,0.7239,-0.5125,0.8193,-0.1701,1.1501,6.4338,7.2752,-1.0099,-0.4809,-0.3527,2.7361,-2.4878,7.6598,-0.817698,0,1698649096,56
-0.0518,0.5584,-0.4073,0.5835,0.2688,-1.0579,0.6114,-1.8657,6.6087,0.9279,-1.0112,0.4511,0.0685,0.9436,6.5751,7.2206,-1.3238,-0.5731,-0.8923,2.6322,-2.4534,7.6457,-0.85836,0,1698649096,57
-0.0435,0.6575,-0.3945,0.7374,0.9359,-1.3515,0.8266,-1.9003,6.381,1.0714,-1.4351,0.114,0.3007,0.6941,6.6392,7.2728,-1.6213,-0.6098,-1.4264,2.4363,-2.3994,7.7051,-0.889984,0,1698649096,57
-0.0345,0.7094,-0.3818,0.8353,1.4899,-1.6427,0.9596,-1.8189,6.6819,1.059,-1.8087,-0.3839,0.4521,0.5218,6.6197,7.3299,-1.8541,-0.6698,-1.8276,2.1963,-2.3617,7.7728,-0.914547,0,1698649096,58
-0.0248,0.7741,-0.3699,0.8605,2.1214,-1.9685,1.0169,-1.8217,7.2709,1.0155,-2.2054,-1.1993,0.51,0.4978,6.541,7.3814,-2.0102,-0.8843,-2.0012,1.9467,-2.3707,7.8281,-0.933626,0,1698649096,59
-0.0149,0.8566,-0.3601,0.8426,2.6928,-2.2736,0.9787,-1.7464,7.6223,1.0061,-2.6712,-2.2109,0.4783,0.6202,6.4165,7.4092,-2.0343,-1.333,-1.9222,1.7371,-2.445,7.9007,-0.948446,0,1698649096,59
-0.0058,0.9013,-0.3528,0.7873,3.0301,-2.5412,0.8289,-1.5086,8.0721,0.9298,-3.1378,-3.1927,0.3727,0.8201,6.2711,7.4222,-1.9132,-1.9269,-1.675,1.5973,-2.5938,7.9708,-0.959956,0,1698649096,60
0.0026,0.9052,-0.3476,0.6935,3.2563,-2.7951,0.6162,-1.3615,8.5822,0.8964,-3.4227,-4.009,0.2421,0.9925,6.1326,7.4807,-1.6777,-2.5314,-1.3458,1.5357,-2.7787,8.0308,-0.968892,0,1698649097,61
0.0097,0.8484,-0.3447,0.5757,3.3766,-3.0289,0.3642,-1.2668,8.9674,0.8082,-3.626,-4.7078,0.1561,1.0991,6.0236,7.5199,-1.4139,-3.0784,-0.975,1.5566,-2.9268,8.1001,-0.968814,0,1698649097,62
0.0155,0.7526,-0.3435,0.4437,3.4427,-3.2421,0.1189,-1.2312,9.2709,0.6898,-3.7192,-4.9566,0.1096,1.1688,5.9633,7.5622,-1.249,-3.5613,-0.6368,1.6474,-3.056,8.1452,-0.924014,0,1698649097,62
0.02,0.6794,-0.3423,0.3842,3.2871,-3.3012,-0.1005,-1.0894,9.3642,0.7573,-3.5999,-4.6607,0.0881,1.2214,5.9384,7.6971,-1.2982,-4.031,-0.3809,1.8125,-3.2157,8.2266,-0.775497,0,1698649097,63
0.0233,0.6023,-0.3385,0.4342,3.092,-3.3948,-0.3341,-0.8358,9.7958,0.9562,-3.4254,-4.2161,0.0637,1.2977,5.9062,7.923,-1.5716,-4.4571,-0.1821,2.0244,-3.4154,8.4316,-0.574637,0,1698649097,64
0.0257,0.5077,-0.3312,0.5655,3.1322,-3.6004,-0.5964,-0.8566,10.3075,1.3256,-3.2651,-3.8588,-0.0022,1.4391,5.8823,8.2722,-1.9399,-4.7199,0.014,2.2585,-3.6694,8.7736,-0.458483,0,1698649097,64
0.0271,0.4189,-0.3197,0.7728,3.1993,-3.6672,-0.8896,-0.8773,10.6747,1.8269,-3.1245,-3.6563,-0.1181,1.6427,5.8835,8.735,-2.2651,-4.821,0.2252,2.4981,-3.9953,9.1774,-0.483775,0,1698649097,65
0.0279,0.3539,-0.3041,0.9966,3.3988,-3.662,-1.2393,-0.7562,11.3259,2.4568,-3.028,-3.6669,-0.2481,1.9,5.9106,9.2736,-2.4939,-4.8432,0.448,2.7064,-4.398,9.6036,-0.58237,0,1698649097,66
0.0283,0.2985,-0.2865,1.1752,3.771,-3.6077,-1.6259,-0.8325,11.9784,3.1276,-2.8602,-3.8541,-0.3713,2.2335,5.9811,9.8245,-2.7031,-4.8111,0.6816,2.8638,-4.8611,10.0835,-0.672375,0,1698649097,67
0.0284,0.2279,-0.2695,1.2947,4.1437,-3.4352,-2.0617,-0.9195,12.5886,3.5379,-2.4503,-3.7379,-0.5361,2.603,6.0656,10.3759,-2.927,-4.7955,0.9056,2.9691,-5.364,10.5992,-0.736238,0,1698649097,67
0.0284,0.1715,-0.2548,1.3492,4.3138,-3.1852,-2.4888,-0.9523,13.2545,3.7061,-1.93,-3.1337,-0.6384,2.892,6.1581,10.9151,-3.0404,-4.8626,1.1665,3.0727,-5.8824,11.0958,-0.668001,0,1698649097,68
0.0283,0.1217,-0.2431,1.2812,4.1699,-2.8999,-2.7498,-1.0816,13.6293,3.7764,-1.4585,-2.644,-0.602,3.0768,6.2667,11.3382,-2.9478,-4.8355,1.4885,3.2534,-6.37,11.5119,-0.415914,0,1698649097,69
0.0282,0.0828,-0.2348,1.1243,3.8323,-2.5837,-2.7557,-1.2923,13.7205,3.7097,-0.9968,-2.3403,-0.4315,3.2018,6.3472,11.6254,-2.6433,-4.6934,1.8161,3.5478,-6.7199,11.7857,-0.117716,0,1698649097,70
0.0272,0.0334,-0.2287,0.9781,3.5044,-2.1549,-2.4918,-1.3534,12.9282,3.6875,-0.6562,-1.8727,-0.1047,3.2169,6.3715,11.7015,-2.1297,-4.5899,2.0808,3.9263,-6.8295,11.8779,0.130104,0,1698649097,70
0.0238,-0.086,-0.2223,0.9075,3.0546,-1.711,-1.8915,-1.4246,12.4292,3.945,-0.5424,-1.5001,0.3213,3.0687,6.3533,11.5438,-1.4667,-4.5802,2.2115,4.3101,-6.6924,11.7273,0.324316,0,1698649097,71
0.017,-0.2906,-0.2134,0.9924,2.5816,-1.4933,-1.0545,-2.3058,13.0684,3.823,-0.5128,-1.4237,0.745,2.7952,6.3004,11.1508,-0.7029,-4.5054,2.1851,4.6283,-6.3882,11.3535,0.475176,0,1698649097,72
0.0065,-0.5411,-0.2018,1.1253,2.2032,-1.2687,-0.2305,-2.975,12.6457,3.3783,-0.3697,-1.4035,1.1031,2.4726,6.1877,10.4992,0.0762,-4.218,2.007,4.857,-5.9913,10.7855,0.592354,0,1698649097,72
-0.0065,-0.7473,-0.1885,1.1735,1.7576,-0.9861,0.4981,-2.562,11.5624,3.3197,0.0151,-1.3479,1.36,2.1354,6.0017,9.7031,0.7282,-3.6309,1.6709,4.9246,-5.5071,10.0639,0.683369,0,1698649097,73
-0.0208,-0.8999,-0.1756,1.1965,1.5504,-0.856,1.0871,-1.9913,10.9513,3.4864,0.1895,-1.573,1.5339,1.8006,5.7795,8.7656,1.2449,-2.6116,1.184,4.788,-5.0103,9.327,0.754059,0,1698649097,74
-0.0356,-1.0319,-0.1641,1.2133,1.4797,-0.7056,1.5122,-1.462,10.2562,3.6173,0.6198,-1.9653,1.5241,1.5838,5.5134,7.9327,1.6504,-1.3282,0.6082,4.4909,-4.5613,8.6419,0.808872,0,1698649097,75
-0.0507,-1.1439,-0.1544,1.1704,1.2655,-0.4455,1.8023,-0.8218,9.8109,3.5409,1.5105,-1.9214,1.295,1.4731,5.1803,7.4196,1.9228,0.0488,0.0731,4.0741,-4.159,8.0231,0.84251,0,1698649097,75
-0.0661,-1.2076,-0.1463,1.0768,1.1835,-0.1916,1.9953,-0.2673,9.5698,3.559,2.1401,-1.5898,1.0054,1.3476,4.8176,6.9978,2.0978,1.3381,-0.2803,3.6063,-3.8303,7.5203,0.868703,0,1698649097,76
-0.082,-1.2426,-0.1397,0.9603,0.9476,0.0866,2.0974,0.2302,9.0839,3.6934,2.5158,-0.8799,0.7574,1.2322,4.515,6.7194,2.191,2.3141,-0.4985,3.1389,-3.5785,7.1335,0.897991,0,1698649097,77
-0.0985,-1.3465,-0.1345,0.862,0.6673,0.353,2.1222,0.6657,8.7683,3.7,2.6594,-0.1153,0.4949,1.1987,4.3005,6.6387,2.2021,2.7611,-0.6757,2.7011,-3.4542,6.8259,0.920766,0,1698649097,78
-0.1154,-1.4372,-0.1294,0.8028,0.643,0.5718,2.1176,0.8469,8.6656,3.5781,2.6448,0.1351,0.1777,1.2454,4.2016,6.6906,2.1826,2.6498,-0.7852,2.3367,-3.463,6.6441,0.938457,0,1698649097,78
-0.1321,-1.4558,-0.124,0.7743,0.5832,0.81,2.0987,0.8308,8.7288,3.4544,2.5482,0.2912,-0.1249,1.3239,4.229,6.8718,2.0712,2.1304,-0.7757,2.0678,-3.5423,6.5901,0.952198,0,1698649097,79
-0.1484,-1.5084,-0.1185,0.7677,0.5768,0.9719,2.0576,0.6215,8.818,3.4718,2.4297,0.565,-0.389,1.4207,4.3021,7.1069,1.8397,1.3274,-0.6788,1.8935,-3.6624,6.628,0.96287,0,1698649097,80
-0.164,-1.5401,-0.1124,0.7679,0.6068,1.0653,1.9984,0.3154,8.824,3.4731,2.1468,0.9354,-0.6026,1.5177,4.3979,7.4124,1.5909,0.5221,-0.5328,1.8195,-3.7917,6.7521,0.97116,0,1698649097,80
-0.1786,-1.4946,-0.1052,0.7561,0.6608,1.1345,1.9354,0.091,8.8262,3.4075,1.9356,1.2597,-0.7412,1.5857,4.5295,7.735,1.2963,0.2384,-0.4731,1.897,-3.8743,6.9639,0.977599,0,1698649097,81
-0.1921,-1.4381,-0.0977,0.7442,0.6609,1.2061,1.8694,-0.0263,8.9461,3.2459,2.0084,1.0079,-0.9529,1.5037,4.7558,8.077,1.0444,-0.2207,-0.3663,1.9212,-3.9922,7.1763,0.982601,0,1698649097,82
-0.205,-1.3729,-0.0903,0.7378,0.5989,1.2464,1.8207,-0.1583,9.1861,3.0963,1.5264,-0.592,-1.0662,1.4919,4.9564,8.2942,0.8317,-0.7587,-0.1426,1.9442,-4.1454,7.3744,0.986486,0,1698649097,83
-0.2172,-1.3149,-0.0832,0.7095,0.5634,1.2376,1.7829,-0.3184,9.4031,3.0136,0.6177,-2.2932,-0.9471,1.665,5.0833,8.4215,0.5805,-0.9235,0.0277,2.0922,-4.2594,7.6082,0.989503,0,1698649097,83
-0.2288,-1.2946,-0.0769,0.6842,0.4737,1.2291,1.7339,-0.4154,9.6253,2.9178,0.3875,-2.1011,-0.904,1.8169,5.2412,8.6811,0.3827,-1.003,0.2034,2.2596,-4.3768,7.8561,0.991847,0,1698649097,84
-0.2401,-1.2603,-0.0711,0.6708,0.3682,1.1731,1.6822,-0.4779,9.8851,2.7963,0.7429,-0.6395,-0.9276,1.9407,5.3524,8.8201,0.2479,-0.9897,0.374,2.4342,-4.4833,8.0529,0.993667,0,1698649097,85
-0.251,-1.2127,-0.0658,0.6318,0.334,1.0801,1.6174,-0.4827,10.0719,2.6226,1.1178,0.3977,-0.9647,2.0275,5.3925,8.8639,0.1807,-1.2469,0.5116,2.6022,-4.5587,8.1667,0.995081,0,1698649097,86
-0.262,-1.2065,-0.0613,0.5641,0.3006,0.9798,1.5491,-0.4623,10.2549,2.4064,1.1892,0.5361,-0.9773,2.1294,5.374,8.941,0.1856,-1.451,0.6287,2.8418,-4.6071,8.2538,0.996179,0,1698649097,86
-0.2734,-1.1854,-0.0569,0.5401,0.2499,0.8695,1.5182,-0.4588,10.1982,2.2737,0.908,0.1792,-0.8815,2.2532,5.2869,8.9263,0.295,-1.284,0.7341,3.1425,-4.6239,8.3001,0.997032,0,1698649097,87
-0.2846,-1.1583,-0.0517,0.5695,0.0768,0.7813,1.4857,-0.3537,9.9805,2.245,0.5976,-0.0427,-0.7423,2.3633,5.1682,8.8494,0.5011,-0.902,0.8408,3.4063,-4.6046,8.2459,0.997695,0,1698649097,88
-0.2957,-1.1371,-0.0464,0.5899,-0.1242,0.6667,1.4468,-0.2009,9.9971,2.2475,0.4135,-0.0019,-0.6,2.4204,5.0821,8.7301,0.7088,-0.5781,0.9508,3.6023,-4.5396,8.1085,0.99821,0,1698649097,88
-0.3059,-1.083,-0.0415,0.5859,-0.2214,0.5385,1.4277,-0.1793,9.9247,2.3767,0.32,0.0894,-0.5075,2.4557,5.0254,8.6035,0.8472,-0.3324,1.0466,3.7607,-4.464,7.9512,0.998609,0,1698649097,89
-0.3158,-0.9994,-0.0354,0.598,-0.2467,0.4654,1.4359,-0.2128,9.5922,2.5829,0.2457,0.1194,-0.4458,2.4791,4.9603,8.472,0.9129,-0.024,1.1286,3.8424,-4.4232,7.805,0.99892,0,1698649097,90
-0.3256,-0.903,-0.0278,0.6018,-0.1111,0.4402,1.4693,-0.0603,9.168,2.6188,0.1511,0.017,-0.2786,2.3263,4.9141,8.3267,0.9009,0.8086,1.1804,3.7486,-4.3576,7.6386,0.999161,0,1698649097,91
-0.3337,-0.8349,-0.0209,0.5643,-0.0945,0.4887,1.4383,0.1782,9.3773,2.4622,0.1341,-0.0527,-0.2723,2.2217,4.9003,8.2985,0.8328,1.2551,1.1584,3.5945,-4.3392,7.6197,0.999348,0,1698649097,91
-0.3396,-0.7569,-0.0158,0.5336,-0.1473,0.5273,1.3836,0.3402,9.6074,2.369,0.0876,-0.1231,-0.2861,2.1667,4.8746,8.3035,0.7108,1.5806,1.114,3.3992,-4.3453,7.6362,0.999494,0,1698649097,92
-0.3439,-0.6432,-0.0115,0.476,-0.1653,0.5785,1.3198,0.396,9.6929,2.2733,0.124,0.2185,-0.2193,2.1298,4.8423,8.3306,0.5402,1.7337,1.0498,3.1876,-4.3807,7.6733,0.999607,0,1698649097,93
-0.3465,-0.5337,-0.0087,0.4024,-0.2014,0.6567,1.2549,0.399,9.7451,2.1297,0.1888,0.6219,-0.0984,2.0793,4.8237,8.3734,0.3711,1.7513,1.0263,3.0132,-4.432,7.7319,0.999695,0,1698649097,93
-0.3478,-0.4391,-0.0075,0.3499,-0.3155,0.7318,1.1943,0.3481,9.8808,1.9519,0.148,0.4751,0.0143,2.0354,4.8231,8.4042,0.2286,1.6481,1.0353,2.8913,-4.4831,7.7899,0.999763,0,1698649097,94
-0.3488,-0.3582,-0.0067,0.3038,-0.4911,0.8115,1.1404,0.3247,9.936,1.8007,0.13,0.1957,0.1086,2.0215,4.8036,8.3776,0.1291,1.4436,1.0712,2.7846,-4.5155,7.8058,0.999815,0,1698649097,95
-0.3501,-0.3092,-0.0058,0.2849,-0.7135,0.8845,1.1121,0.3278,9.9182,1.7282,0.2745,0.2539,0.1546,2.0304,4.7578,8.3377,0.0918,1.1731,1.1316,2.7086,-4.514,7.7939,0.999837,0,1698649097,96
-0.3514,-0.2644,-0.0045,0.2678,-0.8846,0.9131,1.0757,0.2859,9.7769,1.7098,0.5861,0.5599,0.1767,2.0338,4.7016,8.284,0.1216,0.8974,1.1963,2.7034,-4.484,7.7908,0.999679,0,1698649097,96
-0.3521,-0.2151,-0.0031,0.2375,-1.0533,0.9276,1.0116,0.2092,9.6072,1.6707,0.9245,0.8002,0.1589,2.0279,4.6377,8.2291,0.2121,0.6313,1.2628,2.7276,-4.4582,7.7589,0.999231,0,1698649097,97
-0.3524,-0.1836,-0.0012,0.2486,-1.1374,0.8801,0.915,0.5121,9.6382,1.7427,1.1089,0.9552,0.2056,2.0571,4.5495,8.1572,0.3157,0.3504,1.3443,2.7673,-4.4457,7.7088,0.998957,0,1698649097,98
-0.3524,-0.1425,0.0015,0.2751,-1.1797,0.8636,0.8229,0.7618,9.4982,1.802,1.2709,1.12,0.264,2.1158,4.4979,8.0537,0.4208,0.076,1.451,2.835,-4.4234,7.6587,0.999076,0,1698649097,99
-0.3524,-0.0972,0.0044,0.2821,-1.2919,0.8858,0.7079,0.701,9.2921,1.6926,1.5083,1.4005,0.2906,2.1643,4.4939,7.946,0.5297,-0.1116,1.5612,2.9063,-4.404,7.6251,0.999268,0,1698649097,99
-0.3524,-0.0901,0.0071,0.278,-1.3313,0.8408,0.5248,0.7369,9.2885,1.5726,1.749,1.7556,0.3377,2.1993,4.5022,7.8681,0.6169,-0.1737,1.6536,2.9729,-4.3811,7.5984,0.999428,0,1698649097,0
-0.3524,-0.1062,0.0093,0.2672,-1.3508,0.7973,0.3204,0.8095,9.3364,1.4307,1.9436,2.0578,0.33,2.1971,4.5325,7.8318,0.6607,-0.1811,1.7296,3.0433,-4.3364,7.5563,0.999555,0,1698649097,1
-0.3524,-0.116,0.0114,0.2688,-1.4563,0.7627,0.1105,0.8998,9.4396,1.3307,2.0215,2.1946,0.2695,2.1588,4.5881,7.8298,0.6649,-0.2397,1.7767,3.1242,-4.281,7.5279,0.999653,0,1698649097,2
-0.3524,-0.1047,0.0142,0.2769,-1.5682,0.7027,-0.2545,0.7796,9.7122,0.9939,1.5296,1.6641,0.0248,2.0734,4.752,7.9319,0.6863,-0.3813,1.7501,3.4344,-4.1404,7.5214,0.999728,0,1698649097,2
-0.3522,-0.0813,0.018,0.3061,-1.499,0.6364,-0.4076,0.7106,9.4297,0.9647,1.0326,1.0715,-0.0699,2.0445,4.8546,7.9837,0.7112,-0.4199,1.6231,3.6079,-4.0796,7.4641,0.999784,0,1698649097,3
-0.3517,-0.0588,0.0234,0.3508,-1.4257,0.5499,-0.53,0.5739,8.9471,1.1561,0.6424,0.768,-0.1519,2.0304,4.9799,8.0566,0.6939,-0.4251,1.4366,3.7742,-4.0495,7.3975,0.999818,0,1698649097,4
-0.3505,-0.0104,0.0296,0.3917,-1.2588,0.4811,-0.6651,0.4869,8.5821,1.3357,0.4441,0.8203,-0.208,2.0058,5.1166,8.118,0.5962,-0.4173,1.1896,3.9017,-4.0275,7.3375,0.999813,0,1698649097,5
-0.3484,0.0567,0.0358,0.4574,-0.9553,0.4216,-0.8075,0.4805,8.4299,1.4456,0.2798,0.8422,-0.237,1.9666,5.2254,8.1831,0.4537,-0.4189,0.8613,3.9513,-3.9952,7.308,0.999778,0,1698649097,5
-0.3453,0.1275,0.0428,0.5409,-0.5458,0.3669,-0.8934,0.4021,8.3012,1.5347,0.0142,0.5294,-0.2851,1.9207,5.3139,8.2834,0.3295,-0.1619,0.4776,3.9439,-3.9912,7.3438,0.999771,0,1698649097,6
-0.341,0.1853,0.0505,0.5918,-0.1484,0.3824,-0.9277,0.3663,8.3279,1.5745,-0.2969,0.1476,-0.3958,1.8922,5.4065,8.3733,0.2006,0.4118,0.0995,3.8673,-4.0319,7.4206,0.999803,0,1698649097,7
-0.3368,0.2074,0.0577,0.5995,0.1066,0.4634,-0.9126,0.4059,8.7437,1.5704,-0.5258,0.0998,-0.5022,1.8998,5.4722,8.4549,0.0221,0.7986,-0.2308,3.7159,-4.0678,7.5281,0.999841,0,1698649097,8
-0.3341,0.183,0.0642,0.5817,0.2952,0.5153,-0.8592,0.4649,9.2778,1.5199,-0.6261,0.1761,-0.5542,1.8709,5.5099,8.5391,-0.1652,0.8128,-0.4763,3.5763,-4.1106,7.7011,0.999872,0,1698649097,8
-0.3335,0.1263,0.0697,0.5534,0.3404,0.5632,-0.7878,0.5319,9.8594,1.4053,-0.6221,0.1518,-0.5997,1.8258,5.5357,8.62,-0.3098,0.5979,-0.6388,3.4867,-4.1805,7.886,0.999893,0,1698649097,9
-0.3339,0.0874,0.0734,0.518,0.2979,0.5996,-0.706,0.5414,10.3206,1.3043,-0.5654,0.1448,-0.6879,1.8372,5.5453,8.7085,-0.4067,0.2938,-0.7353,3.4512,-4.2731,8.0545,0.999889,0,1698649097,10
-0.334,0.0598,0.0761,0.4708,0.2257,0.6432,-0.6049,0.5665,10.5323,1.214,-0.5341,0.0389,-0.7938,1.8638,5.54,8.78,-0.4616,-0.002,-0.7906,3.46,-4.3743,8.1974,0.999764,0,1698649097,11
-0.3339,0.0516,0.0787,0.4327,0.1381,0.7367,-0.4923,0.6394,10.5631,1.107,-0.5174,-0.1747,-0.8906,1.9036,5.5104,8.8298,-0.4735,-0.2259,-0.8199,3.4861,-4.4736,8.3019,0.999456,0,1698649097,11
-0.3341,0.0521,0.0812,0.3969,0.2004,0.8077,-0.3716,0.7161,10.3285,1.0651,-0.4534,-0.3652,-0.9777,1.9533,5.4821,8.8576,-0.4717,-0.381,-0.8512,3.5152,-4.5493,8.3781,0.999081,0,1698649097,12
-0.3343,0.039,0.0833,0.3429,0.34,0.8449,-0.2685,0.7665,10.0338,1.0644,-0.3636,-0.5039,-1.0173,1.9956,5.4852,8.8394,-0.4831,-0.504,-0.9241,3.5276,-4.5937,8.4233,0.998826,0,1698649097,13
-0.3343,0.0303,0.085,0.2802,0.4067,0.9258,-0.208,0.8857,9.8779,1.0298,-0.2938,-0.5297,-0.9807,2.0418,5.4968,8.8156,-0.5149,-0.6328,-1.0421,3.5189,-4.6153,8.447,0.998725,0,1698649097,14
-0.3343,0.0282,0.0856,0.2181,0.3502,1.0465,-0.1968,1.0439,10.0072,1.0062,-0.2609,-0.5481,-0.8474,2.097,5.5154,8.8543,-0.6053,-0.8198,-1.184,3.5123,-4.6434,8.5089,0.998647,0,1698649097,15
-0.3342,0.0411,0.0855,0.1551,0.2484,1.177,-0.2239,1.0771,10.2924,1.04,-0.2303,-0.4389,-0.6681,2.1748,5.5552,9.0051,-0.7752,-1.0562,-1.3453,3.5294,-4.6874,8.6385,0.998497,0,1698649097,15
-0.3341,0.0483,0.0853,0.1185,0.1626,1.3277,-0.2347,0.9379,10.5299,1.1066,-0.2619,-0.4767,-0.499,2.2687,5.616,9.1552,-0.9974,-1.2918,-1.4954,3.571,-4.7274,8.8044,0.998185,0,1698649097,16
-0.334,0.0475,0.0851,0.113,0.1154,1.6374,-0.1724,0.6462,10.859,1.2093,-0.4466,-0.922,-0.3497,2.3649,5.6994,9.2482,-1.2178,-1.5029,-1.5863,3.6172,-4.7809,8.9811,0.99782,0,1698649097,17
-0.3336,0.0724,0.0847,0.0831,0.0124,1.7552,-0.0175,0.1154,11.3939,1.3669,-0.55,-0.9908,-0.2747,2.4487,5.8243,9.3745,-1.3864,-1.7461,-1.5982,3.6406,-4.8559,9.1791,0.997403,0,1698649097,18
-0.3327,0.1064,0.0826,0.0008,0.0031,1.5008,0.1966,-0.5847,11.9884,1.407,-0.4335,-0.6634,-0.2198,2.4683,6.0119,9.5298,-1.5089,-2.0254,-1.5495,3.6435,-4.9422,9.4138,0.996562,0,1698649097,18
-0.3312,0.1453,0.0783,-0.1404,0.2506,1.2239,0.3859,-1.105,11.8601,1.5675,-0.1999,-0.4568,-0.1286,2.4435,6.2541,9.7199,-1.5955,-2.2619,-1.4579,3.6735,-5.0283,9.6934,0.993198,0,1698649097,19
-0.3293,0.1758,0.072,-0.3099,0.3628,0.8793,0.538,-1.3784,11.7404,1.8371,0.0702,-0.3535,-0.0748,2.4661,6.4938,9.8817,-1.615,-2.3766,-1.328,3.7987,-5.0609,9.9792,0.942476,0,1698649097,20
-0.3269,0.2042,0.0638,-0.4722,0.3784,0.4642,0.7031,-1.5645,11.9373,2.0098,0.2068,-0.4052,-0.0765,2.5535,6.6877,9.9432,-1.5433,-2.2901,-1.1709,4.0258,-5.0191,10.1908,0.694174,0,1698649097,21
-0.3242,0.2399,0.0548,-0.5955,0.4842,0.0813,0.8449,-1.6749,11.7416,2.1846,0.1236,-0.7207,-0.0437,2.6462,6.8517,9.9667,-1.3529,-2.0431,-1.0403,4.2816,-4.9255,10.2686,0.439016,0,1698649097,21
-0.3215,0.2627,0.0456,-0.6729,0.4428,-0.194,0.9329,-1.5621,11.3254,2.3631,-0.0381,-1.057,0.0849,2.7217,6.9842,9.9758,-1.1045,-1.7277,-1.042,4.4519,-4.8054,10.1997,0.433752,0,1698649097,22
-0.3186,0.2853,0.0355,-0.7639,0.403,-0.4334,0.8828,-1.27,10.9145,2.5676,-0.2174,-1.3829,0.2768,2.7892,7.0042,9.8958,-0.9064,-1.4222,-1.1814,4.491,-4.7074,9.9857,0.51408,0,1698649097,23
-0.3146,0.314,0.0243,-0.8532,0.5204,-0.6713,0.6777,-1.0052,10.4901,2.7616,-0.4445,-1.8542,0.511,2.8539,6.837,9.7022,-0.7747,-1.1031,-1.4072,4.3973,-4.6614,9.6456,0.578239,0,1698649097,24
-0.3085,0.3899,0.0113,-0.9323,0.6337,-0.8348,0.3676,-0.8815,10.0599,2.9653,-0.7069,-2.5697,0.7416,2.8613,6.5211,9.4625,-0.692,-0.5886,-1.7164,4.1665,-4.6225,9.2622,0.603194,0,1698649097,24
-0.3,0.5301,-0.0039,-1.107,0.8368,-0.9439,0.0057,-0.8287,9.5633,3.1614,-1.0326,-3.3785,1.1439,2.8132,6.1121,9.04,-0.5784,0.1707,-2.0555,3.8039,-4.56,8.8823,0.497441,0,1698649097,25
-0.2902,0.6665,-0.0211,-1.317,0.986,-0.9477,-0.3197,-0.675,9.1227,3.2539,-1.087,-2.6825,1.5076,2.8335,5.6894,8.6451,-0.3853,1.0767,-2.3341,3.3318,-4.471,8.5057,0.326955,0,1698649097,26
-0.2795,0.7389,-0.04,-1.5094,0.9561,-0.8517,-0.5537,-0.3933,9.1055,3.2429,-0.877,-1.005,1.6596,2.7429,5.3199,8.2629,-0.1415,1.9857,-2.5012,2.8172,-4.3346,8.1568,0.171455,0,1698649097,27
-0.2682,0.8003,-0.0609,-1.6244,0.8324,-0.7218,-0.6699,-0.1839,9.287,3.1632,-0.8009,-0.4503,1.8791,2.4456,5.0174,7.7421,0.0844,2.6747,-2.5269,2.3082,-4.1388,7.8508,0.125278,0,1698649097,27
-0.2581,0.8378,-0.0825,-1.7135,0.6852,-0.586,-0.6629,-0.0693,9.3919,3.1254,-0.8116,-0.8299,2.0872,2.1281,4.8247,7.3395,0.2275,2.904,-2.3578,1.8781,-3.9063,7.6094,0.17691,0,1698649097,28
-0.2498,0.8277,-0.104,-1.8958,0.564,-0.4754,-0.5749,-0.0023,9.2828,3.2692,-0.7628,-1.3318,2.2018,1.835,4.7686,7.0415,0.2944,2.6219,-1.9699,1.6106,-3.6784,7.4452,0.112443,0,1698649097,29
-0.2422,0.8103,-0.1271,-2.0755,0.3872,-0.3375,-0.4843,-0.0055,9.4667,3.3448,-0.4335,-1.0015,2.1691,1.6182,4.873,6.9008,0.2884,1.9324,-1.4317,1.5391,-3.4663,7.3667,0.042452,0,1698649097,30
-0.2352,0.7738,-0.1508,-2.1992,0.1672,-0.1716,-0.3978,-0.1144,9.8322,3.2948,0.0396,-0.1382,1.9953,1.4694,5.095,6.8763,0.2087,1.0551,-0.8389,1.6613,-3.28,7.428,0.047576,0,1698649097,31
-0.2292,0.7433,-0.1723,-2.2625,-0.134,0.0596,-0.3374,-0.2337,9.9843,3.2321,0.2622,-0.1648,1.7649,1.3675,5.3441,6.8888,0.0795,0.2322,-0.2856,1.9121,-3.1753,7.5961,0.083852,0,1698649097,31
-0.2234,0.7205,-0.1944,-2.2785,-0.4745,0.3516,-0.3204,-0.2903,10.1382,3.1549,0.3286,-0.574,1.4326,1.4264,5.6047,7.0137,-0.0788,-0.4811,0.1501,2.1852,-3.1673,7.7929,9.8E-05,0,1698649097,32
-0.218,0.6724,-0.2156,-2.2409,-0.7901,0.6372,-0.3292,-0.3618,10.2279,3.1443,0.5583,-0.2033,1.0117,1.5685,5.8235,7.2174,-0.2734,-0.9184,0.4638,2.4515,-3.2056,8.0343,-0.222394,0,1698649097,33
-0.2133,0.6144,-0.2343,-2.2063,-1.0302,0.8462,-0.383,-0.4804,10.2553,3.1984,0.9216,0.5618,0.58,1.6828,5.9963,7.436,-0.4475,-0.9402,0.6614,2.6862,-3.3028,8.3191,-0.395964,0,1698649098,34
-0.2086,0.5666,-0.2537,-2.204,-1.1987,1.0103,-0.4768,-0.5867,10.1427,3.2382,1.2038,1.0079,0.1526,1.7967,6.1447,7.655,-0.5316,-0.6435,0.7903,2.8495,-3.4432,8.5659,-0.530827,0,1698649098,34
-0.2036,0.5494,-0.274,-2.2039,-1.3305,1.1838,-0.6135,-0.6572,10.1166,3.2018,1.371,1.2231,-0.2084,1.9274,6.2396,7.8443,-0.55,-0.194,0.9355,2.9176,-3.6012,8.7422,-0.635579,0,1698649098,35
-0.1991,0.5417,-0.2941,-2.1918,-1.3689,1.3117,-0.7615,-0.7478,10.2263,3.1287,1.4148,1.3161,-0.435,2.0693,6.2885,7.9932,-0.5627,0.2548,1.05,2.925,-3.7549,8.8619,-0.716577,0,1698649098,36
-0.1955,0.4895,-0.3137,-2.1865,-1.3596,1.4034,-0.8832,-0.7931,10.1547,3.0325,1.4173,1.2895,-0.5906,2.1801,6.3091,8.0854,-0.6057,0.6025,1.046,2.9222,-3.8548,8.929,-0.777909,0,1698649098,37
-0.1922,0.4391,-0.3328,-2.1885,-1.3046,1.4337,-1.0153,-0.7972,9.9929,2.9229,1.4763,1.3907,-0.6928,2.2658,6.3094,8.1019,-0.6264,0.761,0.962,2.9038,-3.8821,8.9651,-0.82251,0,1698649098,37
-0.1886,0.4367,-0.3511,-2.1046,-1.1988,1.4309,-1.1477,-0.8146,9.7381,2.8027,1.5443,1.6117,-0.6851,2.3439,6.2721,8.0436,-0.57,0.8619,0.8695,2.8841,-3.8563,8.9795,-0.853203,0,1698649098,38
-0.1844,0.451,-0.3685,-2.0205,-1.1192,1.4542,-1.2871,-0.8086,9.3692,2.6663,1.5946,1.7841,-0.6111,2.3958,6.2074,7.9529,-0.4495,0.9744,0.8121,2.8827,-3.805,8.9212,-0.868854,0,1698649098,39
-0.1793,0.4658,-0.3848,-1.9668,-1.0744,1.4834,-1.4355,-0.7117,9.1992,2.5371,1.6243,1.8371,-0.516,2.4029,6.1272,7.824,-0.2962,1.0549,0.805,2.9046,-3.7293,8.7885,-0.885413,0,1698649098,40
-0.1734,0.5234,-0.3993,-1.8368,-1.0593,1.4976,-1.5926,-0.6172,9.3151,2.3643,1.6362,1.7947,-0.426,2.3812,6.0419,7.6925,-0.1116,1.0936,0.8447,2.9611,-3.6478,8.5994,-0.710139,0,1698649098,40
-0.1663,0.5823,-0.4124,-1.6984,-0.9461,1.4472,-1.7469,-0.7002,9.5268,2.1448,1.6328,1.7482,-0.3553,2.36,5.9417,7.6059,0.1162,1.0189,0.9027,3.0478,-3.5484,8.3544,-0.351896,0,1698649098,41
-0.1575,0.6174,-0.4246,-1.5914,-0.6911,1.3357,-1.8523,-0.971,9.5325,1.988,1.5994,1.7513,-0.2824,2.3543,5.8291,7.5467,0.3818,0.8688,0.9419,3.1403,-3.4218,8.1302,-0.050099,0,1698649098,42
-0.1476,0.6974,-0.4352,-1.458,-0.5144,1.2567,-1.9171,-1.135,9.2912,1.91,1.5266,1.7008,-0.1917,2.3902,5.7233,7.4801,0.6409,0.7462,0.9433,3.2359,-3.3186,7.9301,0.184356,0,1698649098,43
-0.1376,0.7859,-0.4441,-1.3148,-0.4299,1.1868,-1.9479,-1.1566,9.1616,1.8569,1.384,1.5082,-0.0684,2.463,5.6418,7.3856,0.8404,0.6834,0.918,3.3369,-3.2444,7.7595,0.366465,0,1698649098,44
-0.128,0.8657,-0.4514,-1.1863,-0.3874,1.0806,-1.9266,-1.1774,9.0326,1.8507,1.182,1.2802,0.1066,2.531,5.5866,7.287,0.9741,0.7071,0.8941,3.4402,-3.2017,7.6461,0.507914,0,1698649098,44
-0.1184,0.9087,-0.4569,-1.0296,-0.3807,0.9401,-1.8427,-1.2241,8.7963,1.8426,1.0158,0.9259,0.2817,2.5777,5.5605,7.1728,1.0899,0.803,0.8687,3.5226,-3.2123,7.5723,0.617782,0,1698649098,45
-0.1086,0.9038,-0.461,-0.8776,-0.4173,0.8114,-1.7171,-1.2453,8.6216,1.7765,0.9403,0.6166,0.3939,2.5798,5.5742,7.1186,1.2147,0.8997,0.8123,3.5866,-3.216,7.5272,0.703119,0,1698649098,46
-0.099,0.8888,-0.4642,-0.7639,-0.5284,0.6969,-1.5726,-1.1707,8.646,1.6314,0.915,0.5203,0.4878,2.495,5.5883,6.996,1.2606,0.9458,0.6876,3.6499,-3.1727,7.4805,0.769403,0,1698649098,47
-0.0896,0.8901,-0.4668,-0.6582,-0.6436,0.5808,-1.4033,-1.1151,8.7128,1.4799,0.8714,0.6211,0.5463,2.3902,5.6279,6.8353,1.1598,0.9611,0.4961,3.6985,-3.0928,7.4257,0.820886,0,1698649098,47
-0.0805,0.8835,-0.4683,-0.5361,-0.8082,0.4854,-1.1883,-1.069,8.7206,1.3681,0.8819,0.9909,0.5303,2.2914,5.6947,6.7987,0.947,1.0267,0.2707,3.7312,-2.9824,7.3695,0.860867,0,1698649098,48
-0.072,0.8485,-0.4686,-0.4123,-0.9786,0.3986,-0.9676,-0.9824,8.7336,1.3456,0.994,1.5005,0.466,2.2173,5.7399,6.7631,0.7092,1.0879,0.059,3.7655,-2.8776,7.3128,0.891865,0,1698649098,49
-0.0647,0.8061,-0.4684,-0.3045,-1.1092,0.2987,-0.7775,-0.9411,8.714,1.3613,1.1279,2.0489,0.3657,2.1536,5.7748,6.7325,0.5253,1.098,-0.1004,3.7862,-2.781,7.2733,0.915454,0,1698649098,50
-0.0591,0.7476,-0.4682,-0.2259,-1.3001,0.2186,-0.6042,-0.9568,8.7544,1.288,1.1757,2.3802,0.2554,2.0526,5.8131,6.7092,0.3996,1.1271,-0.2182,3.7694,-2.6945,7.2718,0.930157,0,1698649098,50
-0.0538,0.7077,-0.4681,-0.1764,-1.4706,0.1564,-0.4543,-0.9749,8.7075,1.2086,1.1183,2.439,0.117,1.9447,5.8685,6.6852,0.3172,1.2034,-0.3174,3.7088,-2.6414,7.3064,0.71893,0,1698649098,51
-0.0479,0.6927,-0.4678,-0.1262,-1.5272,0.0288,-0.3319,-1.0301,8.671,1.1617,1.0251,2.229,-0.0605,1.8243,5.9241,6.6741,0.2669,1.2839,-0.3952,3.5954,-2.6216,7.3629,0.335269,0,1698649098,52
-0.042,0.6842,-0.4671,-0.064,-1.6052,-0.1205,-0.247,-1.073,8.8084,0.9958,0.9237,1.8086,-0.2375,1.7158,5.9737,6.7091,0.2236,1.3056,-0.4617,3.4328,-2.6207,7.4389,0.037143,0,1698649098,53
-0.0361,0.6917,-0.4654,-0.0018,-1.7127,-0.2153,-0.1828,-1.0571,8.7895,0.8881,0.8407,1.4632,-0.4168,1.6387,6.0397,6.7725,0.1805,1.2398,-0.5142,3.2642,-2.6343,7.5129,-0.19442,0,1698649098,53
-0.0299,0.7146,-0.4621,0.091,-1.7621,-0.3323,-0.1039,-1.0857,8.6949,0.8879,0.7779,1.322,-0.6156,1.6195,6.1193,6.8497,0.1275,1.169,-0.5379,3.1427,-2.6674,7.5893,-0.373854,0,1698649098,54
-0.0236,0.7152,-0.4567,0.228,-1.6905,-0.5152,-0.0061,-1.222,8.6802,0.7676,0.7334,1.3316,-0.7957,1.6631,6.2039,6.9363,0.0633,1.1277,-0.5725,3.0418,-2.7247,7.699,-0.51298,0,1698649098,55
-0.0173,0.6973,-0.4498,0.3506,-1.4398,-0.7306,0.0776,-1.3846,8.5013,0.6713,0.6997,1.3637,-0.9159,1.7168,6.284,7.0148,0.0092,1.1323,-0.6428,2.9461,-2.7964,7.8298,-0.621472,0,1698649098,56
-0.0105,0.6797,-0.4422,0.4566,-1.1632,-0.9857,0.1239,-1.5365,8.3593,0.6243,0.6701,1.3751,-0.9872,1.7694,6.3484,7.0907,-0.0235,1.227,-0.7179,2.8988,-2.8417,7.9627,-0.705986,0,1698649098,56
-0.0043,0.6567,-0.4349,0.5219,-0.8785,-1.2724,0.159,-1.7381,8.3282,0.5814,0.6011,1.3686,-1.0042,1.825,6.3976,7.1473,-0.0216,1.3304,-0.7669,2.8869,-2.849,8.0729,-0.77163,0,1698649098,57
0.0007,0.6209,-0.4273,0.578,-0.6335,-1.5684,0.1735,-1.9322,8.3772,0.5681,0.464,1.4053,-0.9603,1.8759,6.4476,7.1862,0.0054,1.3647,-0.77,2.8691,-2.8149,8.158,-0.819165,0,1698649098,58
0.0055,0.6025,-0.4188,0.6525,-0.4765,-1.875,0.1446,-1.965,8.6061,0.5153,0.2723,1.5318,-0.91,1.9063,6.4963,7.2401,0.0196,1.324,-0.7102,2.8462,-2.7516,8.2053,-0.855628,0,1698649098,59
0.0104,0.6072,-0.4098,0.7068,-0.2267,-2.2248,0.0754,-1.8684,8.7714,0.5098,-0.0189,1.3991,-0.8769,1.9225,6.5368,7.3021,-0.0052,1.2413,-0.5742,2.8233,-2.7077,8.2015,-0.886529,0,1698649098,60
0.016,0.5838,-0.4003,0.7598,0.05,-2.5298,-0.0167,-1.703,8.7867,0.5357,-0.4352,0.5708,-0.8248,1.965,6.5565,7.3543,-0.067,1.1412,-0.3647,2.7882,-2.7124,8.1496,-0.910137,0,1698649098,60
0.0219,0.5854,-0.3917,0.7774,0.3664,-2.7734,-0.1369,-1.542,8.7983,0.5473,-0.9545,-0.9315,-0.7425,2.0223,6.5336,7.4202,-0.1423,1.0073,-0.115,2.7472,-2.7756,8.0889,-0.92889,0,1698649098,61
0.0282,0.618,-0.385,0.7331,0.6717,-2.9738,-0.2847,-1.4406,8.9051,0.5734,-1.5155,-2.5833,-0.6352,2.0826,6.4754,7.4941,-0.2102,0.8146,0.1471,2.6983,-2.8731,8.0683,-0.944185,0,1698649098,62
0.0353,0.6236,-0.3795,0.6568,0.9413,-3.097,-0.4217,-1.444,9.0552,0.5737,-1.9095,-3.6226,-0.522,2.1447,6.4177,7.5806,-0.2885,0.5252,0.3797,2.6449,-2.9855,8.0985,-0.956514,0,1698649098,63
0.0427,0.6561,-0.3753,0.5788,1.2989,-3.2115,-0.546,-1.5575,9.1132,0.6757,-2.0638,-3.893,-0.3812,2.1846,6.3993,7.6459,-0.4158,0.176,0.5765,2.6383,-3.1026,8.2043,-0.966211,0,1698649098,63
0.0496,0.6984,-0.3726,0.4985,1.5836,-3.3276,-0.6801,-1.6494,9.4176,0.7437,-2.0789,-3.584,-0.2241,2.1929,6.435,7.7197,-0.5862,-0.264,0.7635,2.691,-3.2041,8.3776,-0.973754,0,1698649098,64
0.0556,0.6652,-0.3704,0.4335,1.7774,-3.4179,-0.8294,-1.6952,10.1286,0.6875,-2.0258,-2.8813,-0.1166,2.1727,6.51,7.8368,-0.7995,-0.7693,0.9249,2.8137,-3.3053,8.5727,-0.979614,0,1698649098,65
0.0609,0.594,-0.3668,0.4404,1.9509,-3.511,-0.9718,-1.7505,10.6603,0.7726,-1.9812,-2.2127,-0.0672,2.1283,6.6242,8.008,-1.0522,-1.294,1.0426,2.9878,-3.435,8.815,-0.984165,0,1698649098,66
0.0651,0.5152,-0.3602,0.5167,2.003,-3.5722,-1.0738,-1.7386,10.8277,1.0633,-2.0207,-1.8562,-0.0723,2.0709,6.7847,8.2885,-1.3225,-1.8736,1.065,3.1675,-3.6323,9.1676,-0.987701,0,1698649098,66
0.0673,0.398,-0.35,0.6874,1.9353,-3.5507,-1.1343,-1.5517,11.0876,1.4938,-2.1689,-1.9023,-0.118,2.0442,6.9626,8.6886,-1.6118,-2.369,0.9759,3.3329,-3.9081,9.6144,-0.990447,0,1698649098,67
0.0675,0.2803,-0.3364,0.9489,1.9381,-3.4829,-1.1924,-1.1911,11.5028,2.0682,-2.4775,-2.8422,-0.1228,2.0651,7.1275,9.1601,-1.8458,-2.6378,0.8325,3.4676,-4.2654,10.1173,-0.99258,0,1698649098,68
0.0673,0.1991,-0.3203,1.1736,2.0783,-3.3664,-1.2912,-0.7514,11.8996,2.6993,-2.7828,-3.4257,-0.2425,2.2329,7.3297,9.7037,-1.9177,-2.7154,0.711,3.5617,-4.7067,10.6544,-0.994236,0,1698649098,69
0.0672,0.1395,-0.3051,1.2828,2.2486,-3.0841,-1.4276,-0.3926,12.3665,3.1197,-2.611,-2.9075,-0.5007,2.4966,7.5329,10.1621,-1.8312,-2.7067,0.6003,3.6301,-5.2142,11.1319,-0.995521,0,1698649098,69
0.067,0.1011,-0.2923,1.2515,2.3587,-2.6424,-1.5574,-0.1651,12.6747,3.299,-2.1119,-2.3882,-0.6451,2.6619,7.636,10.4769,-1.6439,-2.6871,0.4437,3.7019,-5.6642,11.463,-0.995617,0,1698649098,70
0.0667,0.0658,-0.2821,1.1521,2.393,-2.1996,-1.6174,-0.1563,12.6203,3.3741,-1.7012,-2.0215,-0.6481,2.7034,7.6572,10.6886,-1.4251,-2.6685,0.2453,3.7416,-5.9335,11.6628,-0.945467,0,1698649098,71
0.0656,0.0143,-0.2747,1.0221,2.4436,-1.8438,-1.571,-0.4865,12.5431,3.1155,-1.4112,-1.7503,-0.4903,2.6478,7.6098,10.7589,-1.2372,-2.6242,0.0077,3.7147,-6.0353,11.7187,-0.690272,0,1698649098,72
0.0625,-0.0852,-0.2704,0.8596,2.4888,-1.4148,-1.4098,-0.8849,12.4392,2.79,-1.2618,-1.5192,-0.1708,2.5238,7.5006,10.7155,-1.0615,-2.5779,-0.2476,3.6778,-6.0171,11.5938,-0.319016,0,1698649098,73
0.0564,-0.2277,-0.2662,0.7629,2.086,-0.8541,-1.1729,-0.9776,12.7066,2.7294,-1.2233,-1.3303,0.1932,2.3687,7.3455,10.5377,-0.8509,-2.5129,-0.4765,3.682,-5.8866,11.268,-0.024529,0,1698649098,73
0.0466,-0.3683,-0.2596,0.7343,1.5949,-0.5354,-0.9113,-1.1095,13.3333,2.7395,-1.2717,-1.3131,0.5135,2.2071,7.0716,10.213,-0.6123,-2.4182,-0.6851,3.7112,-5.6568,10.7712,0.2042,0,1698649098,74
0.0345,-0.5746,-0.2513,0.7875,1.5501,-0.5315,-0.6144,-1.3779,13.1193,2.8356,-1.2753,-1.2452,0.7443,2.0104,6.7506,9.8053,-0.3766,-2.3071,-0.8803,3.7469,-5.3999,10.2027,0.381854,0,1698649098,75
0.0207,-0.7852,-0.2413,0.8662,1.5921,-0.5958,-0.3267,-1.5211,12.1181,2.9797,-1.1767,-1.0178,0.8589,1.7545,6.5157,9.3413,-0.1604,-2.2489,-1.0566,3.7453,-5.1117,9.5907,0.519848,0,1698649098,76
0.0044,-0.9515,-0.2303,0.9469,1.3834,-0.6032,-0.0853,-1.479,11.3627,2.9764,-1.0634,-1.1582,0.9061,1.4291,6.268,8.7524,0.0033,-2.2361,-1.2353,3.6794,-4.7819,8.96,0.627027,0,1698649098,76
-0.0132,-1.1216,-0.2197,1.0318,1.2069,-0.666,0.1345,-1.4289,10.8897,2.9009,-0.8357,-1.3235,0.8916,1.1485,5.9538,8.2204,0.0938,-2.1631,-1.421,3.5523,-4.4595,8.3491,0.710244,0,1698649098,77
-0.0319,-1.2745,-0.2097,1.055,1.2445,-0.8076,0.3453,-1.456,10.1541,2.9463,-0.4322,-1.0607,0.7832,0.9704,5.6399,7.8021,0.1479,-2.0535,-1.6394,3.3573,-4.173,7.778,0.77487,0,1698649098,78
-0.0517,-1.4035,-0.2009,1.0429,1.2652,-0.9006,0.5329,-1.3554,9.544,2.9339,-0.0198,-0.6674,0.5491,0.8409,5.3595,7.4719,0.2027,-1.6174,-1.8422,3.2019,-3.97,7.3377,0.824958,0,1698649098,79
-0.0715,-1.5644,-0.1928,1.0097,1.1619,-0.9081,0.7,-1.1784,9.2988,2.8665,0.2152,-0.4071,0.2343,0.7443,5.1177,7.2614,0.2316,-0.9053,-2.0057,3.1079,-3.8567,7.0243,0.863426,0,1698649098,79
-0.093,-1.7134,-0.1847,0.9675,1.011,-0.85,0.8365,-0.9134,9.1584,2.8864,0.2,-0.3889,-0.0819,0.7144,4.9103,7.1481,0.2141,-0.3795,-2.1924,3.0111,-3.8029,6.7851,0.892804,0,1698649098,80
-0.1149,-1.7508,-0.1774,0.9161,0.904,-0.8381,0.923,-0.6018,9.0873,2.9628,0.0264,-0.7106,-0.4015,0.7799,4.7656,7.1285,0.1391,-0.0308,-2.3979,2.8971,-3.8151,6.663,0.914971,0,1698649098,81
-0.1352,-1.7651,-0.1716,0.8561,0.7919,-0.8791,0.9799,-0.4025,9.1208,3.0574,-0.1392,-1.2519,-0.7316,0.9236,4.702,7.1815,0.0007,0.3262,-2.543,2.7506,-3.8735,6.6635,0.930205,0,1698649098,82
-0.1548,-1.7615,-0.1655,0.8156,0.7091,-0.8556,1.0369,-0.2388,9.1692,3.1081,-0.2167,-1.5889,-1.0588,1.1295,4.7027,7.2833,-0.175,0.6444,-2.5577,2.6018,-3.9493,6.7521,0.912177,0,1698649098,82
-0.1733,-1.7215,-0.1589,0.7864,0.5749,-0.7632,1.1008,-0.035,9.383,3.1684,-0.1993,-1.4884,-1.3529,1.3523,4.7484,7.4003,-0.3097,0.727,-2.4413,2.444,-4.04,6.8814,0.814802,0,1698649098,83
-0.1914,-1.7059,-0.1519,0.7754,0.4408,-0.6795,1.1785,0.1193,9.4879,3.2764,-0.1262,-1.003,-1.6061,1.5721,4.8194,7.5388,-0.3232,0.5782,-2.1498,2.2931,-4.1438,7.0518,0.675902,0,1698649098,84
-0.2094,-1.7063,-0.1441,0.7969,0.4023,-0.6213,1.2602,0.272,9.4718,3.3344,0.0116,-0.6959,-1.8616,1.7198,4.9111,7.789,-0.3311,0.4489,-1.7368,2.2071,-4.2293,7.2486,0.551842,0,1698649098,85
-0.2266,-1.668,-0.1363,0.7913,0.3631,-0.5923,1.345,0.2997,9.6268,3.291,-0.0706,-1.1144,-1.9859,1.8193,4.9856,8.0374,-0.3576,0.386,-1.2736,2.2224,-4.3139,7.4679,0.513048,0,1698649098,85
-0.2429,-1.6382,-0.1284,0.799,0.3257,-0.5297,1.4287,0.2037,9.7793,3.199,-0.3441,-1.6439,-1.958,1.9797,5.0269,8.1828,-0.3212,0.2673,-0.8073,2.3126,-4.4036,7.7442,0.578601,0,1698649098,86
-0.2591,-1.6023,-0.1205,0.8013,0.3027,-0.4359,1.5014,0.1336,9.8737,3.1676,-0.3605,-1.3692,-1.9218,2.1621,5.0788,8.3318,-0.2222,0.1248,-0.3881,2.4158,-4.4795,7.9507,0.665534,0,1698649098,87
-0.2744,-1.591,-0.1127,0.8249,0.2959,-0.3682,1.5834,0.0899,9.854,3.1689,-0.1942,-0.6182,-1.8537,2.2984,5.1378,8.4536,-0.0745,0.0473,-0.0181,2.5401,-4.5408,8.0334,0.738639,0,1698649098,88
-0.2894,-1.646,-0.1049,0.8377,0.2983,-0.3283,1.6591,0.0383,9.8553,3.117,-0.0873,-0.1209,-1.7633,2.3922,5.1753,8.5333,0.1322,0.1585,0.334,2.7227,-4.6042,8.0888,0.795984,0,1698649098,89
-0.3037,-1.6223,-0.0974,0.8014,0.1408,-0.2361,1.723,-0.005,9.8991,2.9684,-0.098,0.0652,-1.6411,2.4325,5.1801,8.5626,0.3516,0.7587,0.5853,2.9644,-4.6369,8.1556,0.841427,0,1698649098,89
-0.3194,-1.582,-0.0895,0.7682,-0.112,-0.0971,1.7777,0.0076,10.0531,2.7453,-0.2068,-0.1287,-1.4763,2.4047,5.1376,8.5295,0.5475,1.414,0.6809,3.0916,-4.6307,8.169,0.876817,0,1698649098,90
-0.3359,-1.5974,-0.0818,0.7089,-0.3407,0.0186,1.8134,0.0861,10.208,2.6254,-0.2948,-0.1863,-1.3082,2.3727,5.0696,8.4696,0.7381,1.6683,0.7585,3.046,-4.6104,8.08,0.904312,0,1698649098,91
-0.3503,-1.5868,-0.0757,0.6865,-0.6222,0.151,1.8189,0.2553,10.0752,2.7082,-0.369,-0.0283,-1.1802,2.3684,4.9962,8.4001,0.9159,1.8351,0.9168,2.9566,-4.5594,7.9681,0.925676,0,1698649098,92
-0.3629,-1.5719,-0.0703,0.6728,-0.9466,0.2863,1.8079,0.4658,9.9774,2.7902,-0.5103,-0.0266,-1.0919,2.3768,4.9189,8.3308,1.1035,2.0873,1.1735,2.8519,-4.5082,7.8686,0.942271,0,1698649098,92
-0.3752,-1.5615,-0.0652,0.6389,-1.1841,0.4032,1.8019,0.5348,10.1588,2.7653,-0.666,0.0336,-1.0003,2.3895,4.8454,8.253,1.2722,2.3566,1.4811,2.7403,-4.4536,7.752,0.95516,0,1698649098,93
-0.3874,-1.5081,-0.061,0.5828,-1.3481,0.5461,1.7845,0.5241,10.2866,2.6894,-0.7485,0.1433,-0.9249,2.4079,4.774,8.1987,1.3845,2.4609,1.8062,2.6272,-4.402,7.666,0.965171,0,1698649098,94
-0.3985,-1.43,-0.0576,0.5234,-1.5658,0.5164,1.7505,0.5167,10.2015,2.6063,-0.7155,0.3939,-0.8689,2.4337,4.7051,8.1546,1.4299,2.6075,2.0995,2.5308,-4.3684,7.6425,0.972948,0,1698649098,95
-0.4084,-1.3415,-0.0542,0.4749,-1.8074,0.5564,1.7036,0.5286,10.0781,2.5181,-0.6533,0.69,-0.7964,2.4575,4.6409,8.0878,1.4371,2.6089,2.3572,2.4739,-4.3535,7.6494,0.978988,0,1698649098,95
-0.417,-1.2148,-0.0512,0.4098,-1.9907,0.8475,1.6101,0.6743,9.9647,2.4321,-0.6126,0.8458,-0.7094,2.4701,4.5873,8.0436,1.429,2.3271,2.5846,2.4454,-4.3609,7.6761,0.983679,0,1698649098,96
-0.4231,-1.0593,-0.0492,0.3572,-2.1365,1.1059,1.4702,0.8675,9.8328,2.3942,-0.5281,0.9174,-0.6018,2.4681,4.5467,8.0051,1.4057,2.0647,2.786,2.4313,-4.372,7.6972,0.987323,0,1698649098,97
-0.4277,-0.9156,-0.0482,0.3042,-2.2916,1.3134,1.3197,0.9737,9.8992,2.3322,-0.3679,1.0804,-0.4739,2.4436,4.5235,7.9497,1.3757,1.8294,2.9969,2.4476,-4.375,7.698,0.990153,0,1698649098,98
-0.4315,-0.7702,-0.0476,0.2542,-2.4077,1.5002,1.1918,0.9394,9.9048,2.2345,-0.1242,1.2624,-0.3651,2.3871,4.5271,7.9064,1.3439,1.6415,3.2017,2.4953,-4.3741,7.689,0.992352,0,1698649098,98
-0.4334,-0.5951,-0.0464,0.2242,-2.4408,1.6844,1.0958,0.8657,9.6596,2.1408,0.2279,1.5989,-0.2577,2.3326,4.5275,7.8878,1.3021,1.4666,3.3812,2.5465,-4.3873,7.6684,0.994059,0,1698649098,99
-0.4336,-0.4384,-0.0445,0.2074,-2.4793,1.865,1.0128,0.782,9.4771,2.065,0.6206,2.2378,-0.112,2.2865,4.5217,7.8899,1.2577,1.2685,3.5316,2.6065,-4.4048,7.6433,0.995386,0,1698649098,0
-0.433,-0.3173,-0.0425,0.1955,-2.5144,2.0309,0.9133,0.6558,9.4137,2.0142,0.9879,2.8763,0.0071,2.2287,4.5458,7.9094,1.2275,1.0882,3.6494,2.6845,-4.4128,7.6209,0.996416,0,1698649098,1
-0.4323,-0.2274,-0.0402,0.2109,-2.4768,2.1444,0.7986,0.5131,9.2751,1.9673,1.3064,3.4899,0.0826,2.162,4.5781,7.9583,1.227,0.8988,3.7264,2.7592,-4.4222,7.6174,0.997216,0,1698649098,2
-0.432,-0.1758,-0.0374,0.2471,-2.4255,2.2266,0.6634,0.4245,9.0539,1.8811,1.5104,4.0261,0.177,2.0705,4.604,8.0021,1.2616,0.7755,3.7367,2.8266,-4.4265,7.6331,0.997838,0,1698649098,2
-0.4319,-0.1331,-0.0342,0.2533,-2.3549,2.2273,0.4903,0.3444,8.984,1.7813,1.5904,4.3344,0.31,1.9683,4.642,8.0319,1.3319,0.7999,3.6936,2.8706,-4.4339,7.6576,0.998321,0,1698649098,3
-0.4313,-0.0854,-0.031,0.2403,-2.2669,2.1913,0.2919,0.2173,9.0322,1.6553,1.6023,4.4222,0.4567,1.856,4.6804,8.0724,1.43,0.9015,3.6235,2.8907,-4.4423,7.6728,0.998696,0,1698649098,4
-0.4302,-0.0429,-0.0288,0.2058,-2.2795,2.2247,0.0645,0.1514,9.1954,1.4549,1.5467,4.2995,0.5869,1.7412,4.7083,8.1073,1.5318,1.0375,3.5384,2.8929,-4.4523,7.6716,0.998987,0,1698649098,5
-0.4285,-0.0041,-0.0271,0.1923,-2.3301,2.2421,-0.1531,0.0574,9.2777,1.3369,1.4252,4.0141,0.671,1.6486,4.7305,8.1408,1.6491,0.96,3.4399,2.8564,-4.4663,7.6573,0.999213,0,1698649098,5
-0.4262,0.0674,-0.0248,0.2164,-2.3329,2.2164,-0.3408,-0.0088,9.0925,1.4532,1.2933,3.6979,0.7116,1.5692,4.7457,8.1661,1.7855,0.6926,3.3344,2.8248,-4.4683,7.6133,0.999389,0,1698649098,6
-0.4232,0.1596,-0.0217,0.2537,-2.3392,2.2126,-0.5138,0.0755,8.76,1.6587,1.1763,3.4122,0.7533,1.5077,4.7579,8.1531,1.8863,0.4424,3.2516,2.8206,-4.4519,7.5818,0.999525,0,1698649098,7
-0.4184,0.2447,-0.0171,0.3369,-2.1959,2.1662,-0.6789,0.215,8.4371,1.7748,1.0599,3.0233,0.819,1.4376,4.7809,8.1195,1.9109,0.1389,3.1234,2.8128,-4.4213,7.56,0.999631,0,1698649098,8
-0.4118,0.3485,-0.0117,0.4169,-1.8136,2.0407,-0.8046,0.2514,8.1734,1.8238,0.9473,2.5474,0.922,1.3727,4.8232,8.0939,1.8575,-0.228,2.9658,2.826,-4.3991,7.5575,0.999714,0,1698649098,8
-0.4048,0.4639,-0.006,0.4588,-1.4161,1.9986,-0.8639,0.1985,8.1458,1.7622,0.8897,2.1973,1.0744,1.3169,4.885,8.0802,1.7352,-0.6519,2.771,2.8675,-4.3648,7.6074,0.999777,0,1698649098,9
-0.3978,0.5343,0.0001,0.4797,-1.069,2.0324,-0.875,0.1627,8.2257,1.6702,0.8833,2.043,1.2524,1.237,4.9474,8.0743,1.5762,-0.9914,2.4987,2.9427,-4.332,7.7042,0.999827,0,1698649099,10
-0.3916,0.5509,0.0067,0.4968,-0.7133,2.0382,-0.8376,0.1088,8.2639,1.6966,0.8792,1.9598,1.4206,1.1348,5.0077,8.1008,1.3845,-1.1597,2.1901,3.0381,-4.333,7.8566,0.999866,0,1698649099,11
-0.3876,0.5003,0.0134,0.5059,-0.4566,2.012,-0.7881,0.0666,8.6309,1.6895,0.8317,1.7963,1.5588,1.0196,5.0753,8.1692,1.1547,-1.2989,1.8438,3.0948,-4.3471,7.9851,0.999896,0,1698649099,11
-0.3861,0.3809,0.0191,0.5001,-0.3152,1.9465,-0.7437,-0.0287,9.1525,1.6114,0.7122,1.4742,1.6185,0.9264,5.1404,8.2426,0.9259,-1.4854,1.5015,3.13,-4.3722,8.0387,0.999919,0,1698649099,12
-0.386,0.2721,0.0242,0.4963,-0.2181,1.8479,-0.7075,-0.1405,9.49,1.5023,0.5298,0.9751,1.5668,0.8815,5.2166,8.3251,0.7525,-1.6098,1.2093,3.2049,-4.4035,8.0921,0.999937,0,1698649099,13
-0.3862,0.1962,0.0286,0.471,-0.0874,1.7338,-0.6904,-0.1826,9.6752,1.3841,0.3294,0.3992,1.4168,0.8852,5.3157,8.4156,0.6715,-1.6536,0.9567,3.2869,-4.4262,8.1633,0.999951,0,1698649099,14
-0.387,0.1053,0.0325,0.4505,0.269,1.5821,-0.6355,-0.3463,9.7346,1.2418,0.1626,-0.0763,1.215,0.9203,5.4081,8.5006,0.6716,-1.5641,0.7086,3.4169,-4.4454,8.242,0.999962,0,1698649099,14
-0.3899,0.0026,0.0368,0.4768,0.4862,1.564,-0.5493,-0.4665,9.8312,0.9646,0.0757,-0.3672,1.0216,0.9802,5.4852,8.5954,0.6921,-1.279,0.4485,3.5619,-4.4681,8.3099,0.999971,0,1698649099,15
-0.3941,-0.0951,0.042,0.5295,0.5066,1.6318,-0.4832,-0.2632,10.0244,0.6746,0.0644,-0.5634,0.857,1.0794,5.5248,8.6622,0.6765,-1.0225,0.1383,3.6273,-4.4702,8.3557,0.999977,0,1698649099,16
-0.3982,-0.1532,0.0477,0.5544,0.6937,1.5983,-0.4285,-0.0299,10.0772,0.5301,0.0974,-0.6876,0.7248,1.218,5.5024,8.7007,0.6065,-0.9427,-0.2356,3.6425,-4.4737,8.3837,0.999982,0,1698649099,17
-0.4006,-0.1451,0.0531,0.522,0.8714,1.6473,-0.4149,0.2964,10.0161,0.4879,0.1802,-0.7287,0.6485,1.386,5.4518,8.7514,0.4899,-0.9846,-0.6207,3.5979,-4.5096,8.4063,0.999986,0,1698649099,17
-0.4013,-0.1106,0.0576,0.4746,0.9422,1.8073,-0.4266,0.671,9.9695,0.5358,0.2879,-0.7836,0.6473,1.5793,5.4283,8.8247,0.3465,-1.0393,-0.9487,3.5341,-4.5436,8.4985,0.999989,0,1698649099,18
-0.401,-0.0679,0.0618,0.4568,1.0508,1.767,-0.3836,1.04,10.4929,0.8467,0.4252,-1.0879,0.671,1.7337,5.4563,8.9544,0.1678,-1.11,-1.1907,3.4878,-4.5548,8.6489,0.999992,0,1698649099,19
-0.4003,-0.0229,0.0651,0.4165,1.0661,1.7622,-0.375,1.2514,11.2728,1.0805,0.3547,-1.7453,0.7269,1.9124,5.524,9.0843,-0.029,-1.3318,-1.3565,3.4655,-4.5512,8.8357,0.999994,0,1698649099,20
-0.3993,-0.0022,0.0666,0.3211,0.8718,1.991,-0.3359,0.7946,11.8393,1.1311,0.0544,-2.5098,0.8061,2.1387,5.6266,9.1549,-0.1963,-1.6405,-1.4529,3.4786,-4.585,9.0704,0.999995,0,1698649099,20
-0.3978,0.0636,0.0664,0.2288,0.4158,2.1339,-0.1376,-0.1013,12.707,1.0333,-0.0117,-2.5454,0.8123,2.3411,5.7907,9.3058,-0.2939,-1.9476,-1.4494,3.5273,-4.642,9.3323,0.999996,0,1698649099,21
-0.3948,0.1759,0.0661,0.1682,-0.0253,2.1852,0.1263,-1.0465,13.5664,0.6585,0.1857,-1.9161,0.7736,2.4906,6.0203,9.4814,-0.3168,-2.2629,-1.3461,3.629,-4.6727,9.5961,0.999997,0,1698649099,22
-0.39,0.255,0.0655,0.095,-0.2674,2.208,0.3645,-1.643,13.6356,0.8522,0.4055,-1.4417,0.7495,2.5685,6.2809,9.6152,-0.3031,-2.5128,-1.1918,3.7692,-4.6954,9.8471,0.999998,0,1698649099,23
-0.3848,0.3054,0.0633,-0.0046,-0.2227,1.9129,0.6271,-2.2934,13.5003,1.6348,0.6887,-1.0077,0.7104,2.6269,6.5654,9.7852,-0.278,-2.6678,-1.0378,3.9152,-4.6957,10.0716,0.999998,0,1698649099,23
-0.3796,0.3341,0.0582,-0.1246,0.2704,1.2858,0.9751,-3.126,13.2835,2.1948,1.0067,-0.6722,0.6808,2.6447,6.8802,9.9241,-0.2602,-2.6893,-0.9028,4.0618,-4.6598,10.253,0.999998,0,1698649099,24
-0.3752,0.325,0.05,-0.2803,0.6986,0.6956,1.311,-3.4696,12.785,2.4675,1.1958,-0.681,0.7192,2.623,7.1686,10.0085,-0.2549,-2.5406,-0.8023,4.1933,-4.6026,10.4107,0.999998,0,1698649099,25
-0.3729,0.2732,0.0392,-0.4609,0.836,0.1647,1.6213,-3.3637,12.489,2.7037,1.2685,-0.9502,0.8334,2.5623,7.3968,10.0265,-0.2184,-2.2582,-0.7514,4.2898,-4.5233,10.5016,0.999968,0,1698649099,26
-0.3722,0.2129,0.0261,-0.6835,0.8865,-0.3772,1.9177,-3.1673,12.1797,2.9994,1.2875,-1.3162,0.986,2.4598,7.5372,9.9199,-0.0843,-1.807,-0.7077,4.3361,-4.3934,10.4675,0.989877,0,1698649099,27
-0.372,0.1673,0.0102,-0.9544,1.0954,-0.8339,2.1062,-2.8827,11.7039,3.2283,1.2655,-1.6822,1.1156,2.3265,7.5479,9.6669,0.1697,-1.0816,-0.6405,4.2987,-4.2259,10.2964,0.945056,0,1698649099,27
-0.3715,0.143,-0.0086,-1.2313,1.1647,-1.1511,2.1231,-2.4016,11.1941,3.3085,1.171,-2.2989,1.2274,2.1483,7.4627,9.3012,0.4668,-0.1636,-0.5959,4.1469,-4.0472,9.996,0.858458,0,1698649099,28
-0.3697,0.1622,-0.0302,-1.5105,0.8904,-1.366,1.9308,-1.7967,10.7024,3.355,1.0098,-2.8955,1.2784,1.9656,7.2903,8.9674,0.6975,0.9005,-0.6304,3.8622,-3.8503,9.5846,0.705618,0,1698649099,29
-0.3651,0.2795,-0.0553,-1.8118,0.5504,-1.4391,1.5642,-1.1483,10.0856,3.4551,0.7678,-3.0504,1.283,1.8619,7.0282,8.6183,0.7907,1.9025,-0.7577,3.4583,-3.6528,9.11,0.516428,0,1698649099,30
-0.3576,0.4163,-0.0819,-1.9835,0.3843,-1.4048,1.1482,-0.5827,9.5575,3.5282,0.5057,-2.702,1.3088,1.8097,6.7214,8.2285,0.6798,2.5386,-0.9989,2.9932,-3.4906,8.6703,0.387993,0,1698649099,30
-0.3485,0.5108,-0.1079,-2.0576,0.3678,-1.2562,0.7603,-0.057,9.2324,3.5348,0.2766,-2.0513,1.3314,1.732,6.4348,7.9183,0.3577,2.7122,-1.3584,2.5142,-3.348,8.3069,0.300616,0,1698649099,31
-0.3383,0.6152,-0.1334,-2.1955,0.3678,-1.0283,0.4402,0.374,9.249,3.5241,0.0619,-1.4309,1.3251,1.6615,6.2001,7.6827,-0.0997,2.4482,-1.7722,2.0669,-3.2215,8.0401,0.201854,0,1698649099,32
-0.3279,0.7016,-0.1574,-2.3147,0.4138,-0.7644,0.2215,0.4974,9.4613,3.5364,-0.046,-0.7121,1.2716,1.6054,6.0194,7.5445,-0.5844,1.9738,-2.138,1.688,-3.1483,7.889,0.088374,0,1698649099,33
-0.3177,0.7692,-0.1791,-2.3326,0.4273,-0.4597,0.0993,0.3767,9.6716,3.5134,-0.0369,-0.2603,1.1764,1.523,5.9357,7.4359,-1.0086,1.4725,-2.3846,1.4127,-3.1099,7.8486,-0.014637,0,1698649099,33
-0.3073,0.8202,-0.199,-2.2915,0.4003,-0.206,0.035,0.1672,9.8809,3.469,0.1218,-0.021,1.0215,1.4422,5.9712,7.3812,-1.2947,0.916,-2.4407,1.2684,-3.0871,7.8886,-0.12152,0,1698649099,34
-0.2967,0.8882,-0.2169,-2.2266,0.399,-0.026,0.0252,-0.2015,9.9085,3.4979,0.3721,0.0925,0.8492,1.3982,6.0899,7.3919,-1.389,0.2043,-2.2567,1.2677,-3.0838,7.9872,-0.226428,0,1698649099,35
-0.2861,0.9614,-0.2347,-2.1723,0.3775,0.1539,0.0372,-0.6077,9.7654,3.5879,0.5835,0.063,0.6642,1.4086,6.249,7.4652,-1.3567,-0.6008,-1.8828,1.381,-3.0988,8.1272,-0.254574,0,1698649099,36
-0.2752,0.9769,-0.2537,-2.1599,0.2432,0.3072,0.0124,-0.8662,9.6672,3.5967,0.7401,0.2369,0.3867,1.4686,6.3941,7.6047,-1.3162,-1.3675,-1.4015,1.5511,-3.1421,8.2763,-0.283237,0,1698649099,36
-0.2635,0.9688,-0.2728,-2.0881,0.0571,0.3522,-0.0768,-1.028,9.6915,3.5163,0.7092,0.3473,0.1039,1.5555,6.5032,7.7322,-1.2634,-1.9955,-0.8811,1.7717,-3.2189,8.4285,-0.241717,0,1698649099,37
-0.2519,0.9896,-0.2916,-2.0351,-0.1147,0.3249,-0.2329,-1.1607,9.6911,3.428,0.4849,0.0717,-0.1388,1.6797,6.5822,7.8607,-1.1679,-2.2319,-0.4113,2.0598,-3.3206,8.5889,-0.09482,0,1698649099,38
-0.2414,1.0237,-0.3101,-2.0546,-0.2005,0.2296,-0.4216,-1.2372,9.6697,3.3356,0.2195,-0.294,-0.3818,1.8363,6.6193,7.9929,-1.0682,-1.9297,-0.0873,2.4202,-3.4245,8.7354,-0.13021,0,1698649099,39
-0.2319,1.0447,-0.3283,-2.0306,-0.1955,0.0516,-0.6345,-1.2523,9.6178,3.2777,-0.1051,-0.5167,-0.5323,2.0006,6.612,8.068,-0.9668,-1.2434,0.086,2.8059,-3.5129,8.8765,-0.317089,0,1698649099,39
-0.2228,1.0472,-0.3469,-1.9972,-0.2181,-0.1327,-0.8707,-1.2018,9.5887,3.2143,-0.3845,-0.5508,-0.6048,2.1601,6.5722,8.0855,-0.8438,-0.2561,0.0936,3.1486,-3.5551,8.9508,-0.469503,0,1698649099,40
-0.2131,1.0136,-0.3654,-1.973,-0.3165,-0.286,-1.1248,-1.1326,9.6749,3.0627,-0.5129,-0.3267,-0.6254,2.2859,6.5059,8.0229,-0.7107,0.6702,-0.0513,3.3241,-3.5643,8.9106,-0.587701,0,1698649099,41
-0.2031,0.9665,-0.3828,-1.886,-0.3436,-0.4742,-1.3802,-1.1253,9.7271,2.9017,-0.5785,-0.099,-0.5314,2.3598,6.431,7.882,-0.6261,1.4169,-0.1971,3.3584,-3.5352,8.7723,-0.679464,0,1698649099,42
-0.1931,0.9636,-0.3987,-1.7545,-0.2453,-0.6774,-1.5947,-1.1614,9.6742,2.8132,-0.6142,-0.0534,-0.3851,2.3838,6.3439,7.7258,-0.6098,1.9534,-0.3181,3.3273,-3.447,8.5208,-0.750819,0,1698649099,42
-0.1834,0.9585,-0.4127,-1.6337,-0.1306,-0.8217,-1.7776,-1.2046,9.4045,2.7354,-0.6921,-0.2182,-0.2136,2.3447,6.234,7.5441,-0.5946,2.0599,-0.4222,3.2381,-3.3449,8.2642,-0.806046,0,1698649099,43
-0.1743,0.9191,-0.4248,-1.5383,-0.1481,-0.9004,-1.946,-1.1744,9.0791,2.6418,-0.8405,-0.4169,-0.0471,2.2616,6.1355,7.3664,-0.5718,1.951,-0.5133,3.1248,-3.237,8.0526,-0.848217,0,1698649099,44
-0.1652,0.8744,-0.4357,-1.4435,-0.2409,-0.9574,-2.1041,-1.0958,8.9797,2.552,-0.9335,-0.435,0.0166,2.1621,6.0457,7.2419,-0.5651,1.7726,-0.6548,3.0028,-3.1222,7.8517,-0.878615,0,1698649099,45
-0.156,0.8545,-0.4455,-1.3313,-0.197,-1.0706,-2.2303,-1.1371,8.8541,2.5397,-0.918,-0.1984,-0.0208,2.0627,5.9503,7.156,-0.5496,1.4235,-0.8687,2.8918,-3.022,7.6772,-0.89374,0,1698649099,45
-0.1468,0.8578,-0.4543,-1.2148,-0.1954,-1.1586,-2.3351,-1.1166,8.72,2.4957,-0.854,0.1259,-0.1095,1.9777,5.8665,7.067,-0.4814,1.0288,-1.0604,2.835,-2.9463,7.5395,-0.877934,0,1698649099,46
-0.1377,0.8459,-0.4618,-1.1206,-0.2231,-1.2014,-2.4149,-1.0284,8.6139,2.4222,-0.7787,0.3029,-0.2202,1.9285,5.8159,6.9982,-0.356,0.7189,-1.1403,2.8317,-2.8927,7.4469,-0.871004,0,1698649099,47
-0.1288,0.849,-0.4684,-1.016,-0.2224,-1.2508,-2.4529,-0.9787,8.5045,2.3473,-0.75,0.3082,-0.3369,1.8758,5.7913,6.9482,-0.2458,0.5088,-1.1588,2.8703,-2.8619,7.3895,-0.889346,0,1698649099,48
-0.1202,0.8531,-0.4738,-0.8869,-0.2884,-1.2712,-2.451,-0.873,8.4206,2.2561,-0.7755,0.2749,-0.465,1.8138,5.7575,6.8982,-0.2104,0.5399,-1.1733,2.9666,-2.8276,7.3275,-0.903958,0,1698649099,48
-0.1124,0.8467,-0.4772,-0.7611,-0.3362,-1.3153,-2.3881,-0.8304,8.3389,2.2062,-0.8217,0.2472,-0.613,1.7691,5.7197,6.8555,-0.304,0.7976,-1.2296,3.0887,-2.7791,7.2636,-0.899206,0,1698649099,49
-0.1046,0.8178,-0.479,-0.6095,-0.422,-1.3503,-2.2736,-0.8283,8.4219,2.0945,-0.8968,0.1917,-0.7868,1.7558,5.6912,6.8262,-0.5514,1.0173,-1.3612,3.2202,-2.7483,7.2169,-0.898601,0,1698649099,50
-0.0974,0.766,-0.4795,-0.4643,-0.6065,-1.2825,-1.8707,-0.7667,8.5754,1.8526,-1.1192,-0.4376,-1.1539,1.788,5.7088,6.8324,-1.1374,0.8869,-1.8037,3.3643,-2.7308,7.2416,-0.920713,0,1698649099,51
-0.0911,0.7347,-0.4793,-0.3448,-0.7614,-1.1774,-1.6332,-0.637,8.6975,1.7888,-1.2386,-1.0859,-1.3254,1.8348,5.7405,6.859,-1.3214,0.9188,-1.9741,3.3799,-2.7188,7.3064,-0.938407,0,1698649099,52
-0.085,0.6998,-0.479,-0.255,-0.955,-1.0481,-1.3575,-0.5453,8.7897,1.7449,-1.2828,-1.3159,-1.5285,1.9108,5.7597,6.8834,-1.4209,0.9572,-2.046,3.3921,-2.7223,7.3937,-0.952159,0,1698649099,52
-0.0794,0.6403,-0.4789,-0.1968,-1.1335,-0.9323,-1.0564,-0.5187,8.8795,1.715,-1.2226,-0.8784,-1.7766,1.9925,5.7538,6.8975,-1.4555,0.9504,-2.0132,3.4155,-2.7411,7.4724,-0.962841,0,1698649099,53
-0.0739,0.59,-0.4785,-0.1524,-1.2628,-0.8185,-0.7322,-0.6001,8.9046,1.7071,-1.1408,-0.3571,-2.0332,2.0737,5.7203,6.9157,-1.4637,0.923,-1.9135,3.4349,-2.7816,7.5347,-0.971137,0,1698649099,54
-0.0686,0.5796,-0.4776,-0.1008,-1.4109,-0.6832,-0.425,-0.5837,8.8973,1.6309,-1.0407,0.0964,-2.2717,2.1511,5.6684,6.9387,-1.4948,0.9315,-1.7918,3.442,-2.8318,7.5958,-0.977581,0,1698649099,55
-0.0644,0.5501,-0.4757,-0.0159,-1.5618,-0.5373,-0.1123,-0.5117,8.9054,1.5984,-0.8743,0.5731,-2.4731,2.2292,5.6211,6.9723,-1.5615,1.0037,-1.6726,3.431,-2.8713,7.658,-0.982587,0,1698649099,55
-0.0612,0.4765,-0.4726,0.0831,-1.6261,-0.4103,0.2303,-0.5017,8.8346,1.6499,-0.7093,0.9766,-2.6109,2.3096,5.5866,6.9986,-1.6338,1.1255,-1.5561,3.3962,-2.9234,7.7334,-0.986474,0,1698649099,56
-0.058,0.44,-0.4686,0.1419,-1.8261,-0.3244,0.5442,-0.4763,8.6933,1.7316,-0.5419,1.2329,-2.7025,2.3899,5.5648,7.0381,-1.6848,1.237,-1.4452,3.3262,-2.9858,7.8215,-0.989494,0,1698649099,57
-0.0539,0.4451,-0.4654,0.1552,-1.8485,-0.308,0.7973,-0.5025,8.5267,1.8806,-0.4374,1.1609,-2.7174,2.4729,5.569,7.0909,-1.7049,1.3263,-1.3693,3.2221,-3.0564,7.9322,-0.99184,0,1698649099,58
-0.0491,0.4539,-0.4633,0.165,-1.5982,-0.2995,0.9778,-0.6071,8.4702,1.9086,-0.3835,1.0523,-2.6549,2.5839,5.5845,7.1667,-1.6659,1.3683,-1.3316,3.0853,-3.1532,8.0701,-0.993662,0,1698649099,58
-0.0441,0.4523,-0.4611,0.1773,-1.4167,-0.2392,1.1009,-0.7273,8.5212,1.7863,-0.2761,1.2184,-2.5424,2.6936,5.5736,7.2622,-1.5598,1.349,-1.3066,2.9323,-3.2599,8.2175,-0.995077,0,1698649099,59
-0.0389,0.4713,-0.4581,0.22,-1.2774,-0.195,1.1684,-0.7485,8.575,1.6382,-0.185,1.3252,-2.3758,2.7174,5.5686,7.3513,-1.4049,1.2649,-1.2667,2.7836,-3.3594,8.3523,-0.996175,0,1698649099,60
-0.0329,0.5139,-0.4538,0.2747,-0.8128,-0.3331,1.1639,-0.731,8.5744,1.4098,-0.1332,1.0065,-1.836,2.6402,5.6022,7.5154,-1.0601,0.8707,-1.0924,2.5721,-3.5372,8.5579,-0.997028,0,1698649099,61
-0.0258,0.5259,-0.4489,0.314,-0.579,-0.4443,1.11,-0.8177,8.6585,1.2546,-0.1336,0.6408,-1.447,2.569,5.6096,7.5611,-0.9154,0.6028,-0.9555,2.5378,-3.5866,8.5788,-0.997688,0,1698649099,61
-0.0181,0.5568,-0.4441,0.3643,-0.4188,-0.563,1.0391,-0.9173,8.8449,1.1634,-0.1527,0.1821,-1.0401,2.5184,5.6313,7.6081,-0.7825,0.3266,-0.7861,2.5538,-3.5883,8.5723,-0.998173,0,1698649099,62
-0.0096,0.5998,-0.4387,0.4258,-0.1597,-0.749,0.9781,-1.1474,8.9055,1.1696,-0.2067,-0.2313,-0.6737,2.4747,5.681,7.6499,-0.6495,0.072,-0.5829,2.6005,-3.5674,8.56,-0.998442,0,1698649099,63
-0.0016,0.6235,-0.432,0.4742,0.1003,-0.9752,0.9068,-1.3859,8.9475,1.1305,-0.2938,-0.5745,-0.3781,2.438,5.7512,7.6875,-0.5079,-0.1521,-0.374,2.6857,-3.5354,8.5245,-0.998532,0,1698649099,64
0.0058,0.628,-0.4249,0.4852,0.2921,-1.1697,0.8259,-1.5677,9.1101,1.0646,-0.399,-0.848,-0.1433,2.4205,5.8178,7.7239,-0.3646,-0.3356,-0.1759,2.8029,-3.5031,8.4914,-0.998575,0,1698649099,64
0.0131,0.5883,-0.4182,0.4954,0.505,-1.3532,0.7366,-1.7068,9.1917,1.0367,-0.4279,-1.0944,0.0186,2.3977,5.8676,7.7786,-0.2337,-0.4824,0.0189,2.9273,-3.4801,8.4632,-0.998624,0,1698649099,65
0.0197,0.5766,-0.4126,0.4857,0.6677,-1.511,0.6076,-1.7082,9.2077,1.0372,-0.4579,-1.2918,0.1367,2.3793,5.9151,7.8262,-0.1474,-0.6271,0.1889,3.0555,-3.4633,8.4218,-0.998703,0,1698649099,66
0.0267,0.599,-0.409,0.4239,0.7601,-1.6429,0.4282,-1.5438,9.3381,1.0144,-0.5725,-1.325,0.2233,2.3468,5.9611,7.8632,-0.1238,-0.7625,0.3209,3.1775,-3.445,8.3825,-0.99887,0,1698649099,67
0.0339,0.5959,-0.4075,0.3308,0.8872,-1.7906,0.213,-1.3611,9.4743,0.9822,-0.6785,-1.2408,0.2726,2.3149,6.0035,7.8681,-0.1421,-0.8745,0.4619,3.2964,-3.423,8.3597,-0.999008,0,1698649099,67
0.0407,0.5868,-0.4072,0.2541,0.9263,-1.9615,-0.0283,-1.286,9.7721,0.8163,-0.8052,-1.2155,0.3169,2.2826,6.0557,7.8529,-0.2007,-0.9342,0.579,3.4146,-3.408,8.362,-0.999062,0,1698649099,68
0.0475,0.5897,-0.4068,0.2243,1.0054,-2.1416,-0.4627,-1.0427,10.1416,0.471,-0.9738,-1.026,0.4135,2.2573,6.1814,7.9652,-0.4546,-1.0339,0.5737,3.6311,-3.4829,8.5645,-0.999163,0,1698649099,69
0.0542,0.5763,-0.4047,0.252,1.1118,-2.3356,-0.635,-0.9909,10.1803,0.5735,-0.9663,-0.3601,0.4553,2.255,6.277,8.116,-0.6368,-1.098,0.5363,3.7353,-3.5585,8.7579,-0.999299,0,1698649099,70
0.0602,0.5648,-0.3987,0.3931,1.2712,-2.563,-0.7722,-1.1083,10.2424,0.7662,-1.1003,-0.367,0.4537,2.2537,6.4089,8.2684,-0.7579,-1.1419,0.5235,3.8635,-3.6571,8.9811,-0.999433,0,1698649099,70
0.066,0.5598,-0.388,0.6235,1.4734,-2.7413,-0.86,-1.2834,10.4117,0.9711,-1.3339,-0.9935,0.4227,2.2522,6.5791,8.4852,-0.852,-1.2058,0.4973,4.0013,-3.789,9.2565,-0.999555,0,1698649099,71
0.0709,0.5339,-0.3735,0.8593,1.8332,-2.9164,-0.9171,-1.4427,10.6046,1.2744,-1.5077,-1.5927,0.3832,2.2101,6.7754,8.7791,-1.0034,-1.3237,0.3935,4.1105,-3.974,9.5891,-0.999654,0,1698649099,72
0.0741,0.4704,-0.3567,1.0418,2.0974,-3.026,-0.9871,-1.3368,10.9122,1.7839,-1.6264,-2.1322,0.3398,2.2202,6.9759,9.1344,-1.1909,-1.439,0.2165,4.1862,-4.2096,9.9507,-0.999731,0,1698649099,73
0.076,0.3909,-0.3373,1.1893,2.0981,-2.9561,-1.0976,-0.7713,11.7073,2.3601,-1.763,-2.4669,0.2455,2.3529,7.1734,9.5723,-1.357,-1.5218,0.0237,4.2731,-4.482,10.3352,-0.999791,0,1698649099,73
0.0771,0.3158,-0.3179,1.3072,2.1847,-2.7509,-1.2466,-0.0921,12.5657,2.9199,-1.8606,-2.8325,0.1485,2.5088,7.3495,9.9646,-1.4698,-1.5495,-0.1567,4.3902,-4.8028,10.7001,-0.999838,0,1698649099,74
0.0775,0.2487,-0.3028,1.3293,2.3261,-2.4347,-1.4143,0.408,13.0416,3.3808,-1.7796,-2.8762,0.0364,2.6693,7.4673,10.3275,-1.4885,-1.5258,-0.3233,4.4762,-5.1404,10.9956,-0.99987,0,1698649099,75
0.0774,0.183,-0.2913,1.2812,2.3285,-2.0383,-1.611,0.6178,13.3022,3.6176,-1.5828,-2.4994,-0.0711,2.8021,7.507,10.6177,-1.4151,-1.452,-0.5183,4.5042,-5.4473,11.1981,-0.999453,0,1698649099,76
0.0758,0.0985,-0.2824,1.2,2.2359,-1.4969,-1.751,0.5847,13.3362,3.5585,-1.3976,-2.2058,-0.071,2.8495,7.4132,10.7718,-1.3198,-1.3308,-0.7763,4.4663,-5.7082,11.3113,-0.988152,0,1698649099,77
0.0708,-0.0403,-0.2755,1.0724,2.2141,-0.9426,-1.7754,0.3873,13.2194,3.3995,-1.2163,-1.9233,0.0296,2.8478,7.2041,10.826,-1.2339,-1.229,-1.1011,4.3602,-5.8819,11.2851,-0.899375,0,1698649099,77
0.0617,-0.2716,-0.2696,0.975,2.0822,-0.5138,-1.7031,0.0028,13.4601,3.4271,-1.049,-1.5675,0.2099,2.8045,6.934,10.7448,-1.0538,-1.1917,-1.4182,4.1811,-5.9391,11.0512,-0.665297,0,1698649099,78
0.049,-0.5584,-0.2626,0.9273,1.9764,-0.2531,-1.572,-0.8509,13.515,3.51,-0.9379,-1.2749,0.4361,2.7105,6.6325,10.4626,-0.723,-1.1618,-1.6286,3.9465,-5.883,10.6151,-0.341777,0,1698649099,79
0.0333,-0.8744,-0.2537,0.9272,1.9325,-0.089,-1.4514,-1.5058,12.6112,3.5142,-0.8652,-0.8909,0.6425,2.5741,6.3034,10.0395,-0.3459,-1.0508,-1.7282,3.7079,-5.7181,10.0486,-0.043362,0,1698649099,80
0.0151,-1.1389,-0.2438,0.9674,1.6308,0.0095,-1.3109,-1.5098,11.5781,3.5242,-0.7661,-0.4597,0.8164,2.3677,5.9564,9.5545,-0.0258,-0.934,-1.7723,3.4742,-5.4788,9.4175,0.189543,0,1698649099,80
-0.0054,-1.3818,-0.2339,0.9956,1.3948,-0.1432,-1.1353,-1.5729,11.0004,3.506,-0.6533,-0.365,0.9958,2.0681,5.5941,9.0009,0.1888,-0.8372,-1.8108,3.3188,-5.205,8.79,0.370481,0,1698649099,81
-0.028,-1.5832,-0.2238,0.9937,1.2626,-0.411,-0.9153,-1.7234,10.3678,3.4234,-0.4268,-0.3188,1.1224,1.7539,5.2387,8.4888,0.3206,-0.7544,-1.8493,3.2311,-4.9362,8.205,0.511015,0,1698649099,82
-0.0533,-1.7734,-0.2139,0.953,0.9167,-0.8231,-0.4305,-1.6009,8.9891,3.339,0.3536,0.3056,1.274,1.1932,4.6616,7.6575,0.5899,-0.6254,-1.8232,2.9814,-4.4205,7.231,0.620137,0,1698649099,83
-0.0807,-1.9638,-0.2045,0.889,0.7643,-1.0319,-0.1838,-1.4297,8.5661,3.4309,0.668,0.5293,1.2584,0.9722,4.4708,7.3903,0.7114,-0.2226,-1.7532,2.8578,-4.2085,6.9153,0.699734,0,1698649100,83
-0.1087,-2.0596,-0.1957,0.8341,0.6468,-1.2052,0.0452,-1.1779,8.4565,3.5043,0.7733,0.4227,1.1567,0.8447,4.3702,7.2664,0.781,0.2752,-1.6699,2.7096,-4.0729,6.7403,0.756607,0,1698649100,84
-0.1351,-2.0991,-0.1871,0.8361,0.5657,-1.3126,0.2734,-0.9285,8.5177,3.4812,0.7068,-0.0921,0.9679,0.8085,4.3463,7.2525,0.7839,0.5809,-1.5779,2.5066,-4,6.6984,0.804127,0,1698649100,85
-0.161,-2.1327,-0.1786,0.8456,0.53,-1.3235,0.4652,-0.5475,8.7647,3.3064,0.5964,-0.8124,0.7001,0.8268,4.3905,7.2927,0.7487,0.7732,-1.4893,2.3054,-3.9957,6.7838,0.845343,0,1698649100,86
-0.187,-2.2068,-0.1699,0.8292,0.4443,-1.2664,0.6294,-0.1107,9.0766,3.2286,0.5243,-1.3634,0.3823,0.9204,4.4725,7.4068,0.7265,0.8654,-1.3678,2.1245,-4.0383,6.9551,0.878799,0,1698649100,86
-0.2112,-2.2217,-0.1611,0.7995,0.3692,-1.1786,0.786,0.2562,9.2913,3.2962,0.5091,-1.4283,0.0374,1.0621,4.5666,7.5631,0.6998,0.8817,-1.1719,2.0094,-4.103,7.1778,0.905165,0,1698649100,87
-0.2324,-2.1795,-0.1532,0.7803,0.2973,-0.9996,0.9408,0.5119,9.5093,3.2853,0.5221,-1.0867,-0.3192,1.1986,4.695,7.7363,0.6621,0.7775,-0.8894,1.9788,-4.1773,7.4151,0.925804,0,1698649100,88
-0.2507,-2.1208,-0.1453,0.7611,0.2533,-0.7063,1.0858,0.6745,9.5224,3.2854,0.5688,-0.7456,-0.6464,1.3204,4.8688,7.9628,0.6268,0.5782,-0.5388,1.9766,-4.2646,7.6409,0.94208,0,1698649100,89
-0.2676,-2.012,-0.1379,0.735,0.2004,-0.3293,1.2087,0.9248,9.5696,3.2719,0.3443,-1.2433,-0.8528,1.4137,5.0431,8.1884,0.6394,0.2922,-0.1462,1.991,-4.3913,7.8598,0.954943,0,1698649100,89
-0.2844,-1.9116,-0.1306,0.7262,0.1304,0.0376,1.3245,1.0527,9.6895,3.2486,-0.0039,-1.929,-0.9569,1.5332,5.156,8.3845,0.7387,-0.0152,0.2797,2.062,-4.5258,8.0643,0.964995,0,1698649100,90
-0.3013,-1.8377,-0.123,0.6863,0.0352,0.7646,1.5278,1.0059,9.6042,3.2108,0.3462,-0.5538,-1.0594,1.9862,5.2456,8.6477,1.1094,-0.2087,0.9629,2.314,-4.7188,8.3697,0.972811,0,1698649100,91
-0.3181,-1.7657,-0.1158,0.6375,-0.0397,1.1412,1.6278,0.9427,9.6353,3.0447,0.4987,-0.0956,-1.0492,2.1869,5.2462,8.7148,1.3066,-0.1435,1.1693,2.4262,-4.7764,8.3967,0.978881,0,1698649100,92
-0.3346,-1.7297,-0.1088,0.6281,-0.0698,1.4252,1.7515,0.7967,9.6547,2.9505,0.5336,0.2996,-0.8879,2.3561,5.2074,8.7186,1.4972,0.0801,1.3057,2.5051,-4.7893,8.3814,0.983596,0,1698649100,92
-0.3497,-1.7059,-0.1021,0.6202,-0.0463,1.6305,1.8808,0.5862,9.53,2.9912,0.5717,0.592,-0.633,2.475,5.1412,8.6792,1.7595,0.42,1.5029,2.5742,-4.7716,8.3666,0.987259,0,1698649100,93
-0.3639,-1.624,-0.096,0.6084,-0.1192,1.8172,1.9991,0.4321,9.3869,2.9712,0.6176,0.6708,-0.3678,2.5385,5.0617,8.5928,2.0093,0.793,1.6713,2.5736,-4.7271,8.2522,0.990104,0,1698649100,94
-0.3771,-1.4964,-0.0898,0.6016,-0.2397,1.963,2.1166,0.3516,9.5128,2.7758,0.718,0.7874,-0.1089,2.5659,4.9673,8.4835,2.1121,0.6738,1.6352,2.5196,-4.6644,8.0893,0.992313,0,1698649100,95
-0.3877,-1.3543,-0.0846,0.5647,-0.278,2.0448,2.2206,0.2496,9.5929,2.6678,0.8914,0.9624,0.1544,2.5674,4.8785,8.3662,2.122,-0.0495,1.6054,2.5226,-4.6032,8.0116,0.994029,0,1698649100,95
-0.3962,-1.2232,-0.0804,0.5227,-0.3844,2.1228,2.304,0.1476,9.5654,2.6214,1.1497,1.2372,0.3964,2.5546,4.8005,8.2564,2.1596,-0.5618,1.7825,2.5704,-4.5273,7.9754,0.995362,0,1698649100,96
-0.4034,-1.0992,-0.0765,0.4873,-0.4696,2.1604,2.3568,0.1612,9.4274,2.564,1.4244,1.4702,0.615,2.5415,4.7361,8.1391,2.303,-0.5899,2.1127,2.6206,-4.4398,7.9333,0.996398,0,1698649100,97
-0.409,-0.9596,-0.0723,0.484,-0.488,2.1299,2.3953,0.0894,9.2679,2.5375,1.677,1.624,0.8138,2.5375,4.696,8.0447,2.48,-0.3612,2.485,2.6689,-4.3496,7.8478,0.997202,0,1698649100,98
-0.4134,-0.8214,-0.0679,0.4801,-0.5092,2.1037,2.4098,0.043,9.2229,2.4467,1.8894,1.8278,1.0023,2.5397,4.6723,7.9824,2.6123,-0.158,2.8382,2.7265,-4.2624,7.7468,0.997827,0,1698649100,98
-0.416,-0.668,-0.064,0.4592,-0.587,2.1098,2.3581,0.1373,9.202,2.3171,1.9981,2.021,1.1777,2.5339,4.6753,7.9203,2.6989,-0.0036,3.1107,2.814,-4.1723,7.6534,0.998312,0,1698649100,99
-0.4167,-0.5206,-0.0604,0.4554,-0.6126,2.0258,2.0767,0.3391,9.1833,2.1753,1.9853,2.1536,1.3754,2.4305,4.7574,7.8462,2.7973,0.3708,3.3851,3.0136,-3.993,7.4735,0.998689,0,1698649100,0
-0.4165,-0.4063,-0.0564,0.4528,-0.6545,1.9691,1.9101,0.3011,8.9941,2.1303,1.9465,2.0636,1.4521,2.343,4.8181,7.7985,2.7787,0.5145,3.4341,3.118,-3.9173,7.3783,0.998982,0,1698649100,1
-0.4164,-0.3137,-0.0516,0.4667,-0.7544,1.949,1.6828,0.3554,8.9744,2.0166,1.953,1.9178,1.5194,2.2427,4.8746,7.7503,2.7166,0.7012,3.3989,3.1945,-3.8438,7.3092,0.999209,0,1698649100,1
-0.4161,-0.2348,-0.047,0.4552,-0.9197,1.9214,1.3766,0.4487,9.0961,1.8983,1.9947,1.8234,1.576,2.1445,4.9156,7.7042,2.6222,1.0021,3.2804,3.2358,-3.7846,7.2646,0.999386,0,1698649100,2
-0.4158,-0.1745,-0.0432,0.435,-1.1675,1.8855,1.0221,0.5474,9.2311,1.8342,2.0748,1.8914,1.6037,2.0757,4.9348,7.6757,2.5217,1.3432,3.1253,3.2379,-3.7464,7.2188,0.999523,0,1698649100,3
-0.4157,-0.1421,-0.0393,0.4485,-1.3147,1.8073,0.6879,0.5733,9.1512,1.8421,2.1839,2.1523,1.5579,2.0287,4.9313,7.6818,2.407,1.5894,2.9742,3.1989,-3.7404,7.1636,0.999629,0,1698649100,3
-0.4157,-0.1166,-0.0343,0.459,-1.418,1.7424,0.3934,0.4364,8.9727,1.779,2.2141,2.5432,1.4431,1.9646,4.908,7.6896,2.2506,1.6809,2.8533,3.1478,-3.7596,7.131,0.999712,0,1698649100,4
-0.4157,-0.0902,-0.0288,0.4484,-1.5111,1.7396,0.1041,0.3433,8.9697,1.647,2.1463,2.9056,1.29,1.8959,4.8993,7.7169,2.0694,1.752,2.7544,3.1135,-3.7839,7.1417,0.999776,0,1698649100,5
-0.4156,-0.062,-0.0238,0.4328,-1.5203,1.7264,-0.1563,0.2375,8.9635,1.6015,2.0486,3.1914,1.1037,1.8337,4.9126,7.8042,1.9006,1.8157,2.6724,3.0924,-3.8145,7.1692,0.999826,0,1698649100,6
-0.4155,-0.0391,-0.0189,0.4635,-1.4942,1.6872,-0.3714,0.1446,8.9637,1.5623,1.9061,3.3477,0.8951,1.7813,4.9285,7.8972,1.7396,1.7553,2.5721,3.0966,-3.8522,7.2331,0.999865,0,1698649100,6
-0.4152,-0.0292,-0.0136,0.5162,-1.4577,1.6098,-0.5394,0.0677,8.9759,1.566,1.7444,3.378,0.6863,1.7594,4.9494,7.9773,1.5626,1.4553,2.4209,3.114,-3.898,7.3127,0.999895,0,1698649100,7
-0.4148,0.0007,-0.0087,0.5066,-1.4362,1.5472,-0.6843,0.0283,9.004,1.5525,1.6009,3.3981,0.4959,1.7517,4.9589,8.0415,1.3816,0.9572,2.2242,3.1487,-3.9475,7.3924,0.999919,0,1698649100,8
-0.4134,0.0493,-0.0048,0.468,-1.4195,1.4977,-0.8164,0.0193,9.0286,1.5103,1.4408,3.2978,0.3353,1.7516,4.9602,8.086,1.2488,0.4638,1.9777,3.1847,-4.0038,7.4813,0.999937,0,1698649100,8
-0.4112,0.0855,-0.0012,0.4586,-1.3929,1.4234,-0.9174,-0.0222,9.0233,1.5008,1.2628,3.0478,0.2003,1.7583,4.961,8.1352,1.1711,0.0814,1.7581,3.2263,-4.0794,7.579,0.999951,0,1698649100,9
-0.4083,0.1156,0.0033,0.4628,-1.2657,1.3257,-0.977,-0.0129,8.9196,1.4885,1.116,2.753,0.0988,1.7634,4.9824,8.1797,1.0921,-0.1883,1.6276,3.2995,-4.1445,7.6805,0.999962,0,1698649100,10
-0.4053,0.1681,0.0079,0.4553,-1.0553,1.2089,-0.9927,-0.0958,8.7449,1.4678,0.985,2.4107,0.0746,1.7594,5.0383,8.2056,0.9932,-0.5333,1.5228,3.3622,-4.1478,7.7658,0.99997,0,1698649100,10
-0.4018,0.2262,0.0123,0.4315,-0.8731,1.131,-1.0015,-0.2078,8.7447,1.414,0.8644,1.9804,0.1179,1.7349,5.1213,8.2289,0.8806,-0.9555,1.4192,3.4056,-4.1116,7.8472,0.999977,0,1698649100,11
-0.3971,0.2835,0.0163,0.4112,-0.6182,1.0747,-1.01,-0.2221,8.809,1.3728,0.7571,1.4731,0.1789,1.7091,5.2039,8.2727,0.7735,-1.269,1.2774,3.4767,-4.0883,7.9503,0.999982,0,1698649100,12
-0.3919,0.3355,0.0206,0.403,-0.341,1.0497,-0.9902,-0.1848,8.8696,1.3958,0.6253,0.9854,0.2356,1.7135,5.275,8.3223,0.6886,-1.4417,1.0454,3.5582,-4.0632,8.0641,0.999986,0,1698649100,12
-0.388,0.3342,0.0252,0.3978,-0.1334,1.0525,-0.9441,-0.0874,9.0033,1.4717,0.5126,0.7003,0.2592,1.7364,5.3605,8.3626,0.6653,-1.3739,0.8209,3.6586,-4.0285,8.1749,0.999989,0,1698649100,13
-0.3855,0.2972,0.0293,0.3891,-0.1817,1.0495,-0.9151,0.0567,9.2212,1.5424,0.4532,0.4141,0.194,1.7317,5.46,8.4474,0.7009,-0.9941,0.6602,3.7702,-4.0015,8.2711,0.999992,0,1698649100,14
-0.3842,0.264,0.0326,0.3603,-0.2738,1.0949,-0.9012,0.1474,9.4988,1.5944,0.1881,-0.2105,0.1136,1.7599,5.5365,8.5095,0.7413,-0.5865,0.7416,3.835,-3.9721,8.2983,0.999993,0,1698649100,14
-0.3833,0.2222,0.0353,0.3218,-0.2388,1.1754,-0.892,0.2238,9.8662,1.5104,-0.2923,-1.0594,0.0178,1.8678,5.6018,8.4987,0.7582,-0.2759,0.8073,3.8947,-3.9435,8.2985,0.999995,0,1698649100,15
-0.3831,0.1642,0.0379,0.2976,-0.2867,1.3103,-0.9002,0.4459,10.0107,1.367,-0.6279,-1.5373,-0.1383,2.0059,5.6622,8.5312,0.7552,-0.0611,0.6258,3.9579,-3.9163,8.2921,0.999996,0,1698649100,16
-0.3836,0.1177,0.0409,0.3095,-0.2641,1.4995,-0.8845,0.6559,10.0796,1.178,-0.7036,-1.3836,-0.2911,2.1482,5.6852,8.5609,0.7281,0.0828,0.4566,3.991,-3.8749,8.2547,0.999997,0,1698649100,17
-0.3843,0.0739,0.0445,0.3224,-0.095,1.6745,-0.8109,0.8163,10.1313,1.0088,-0.6321,-0.8833,-0.4354,2.2731,5.674,8.537,0.6389,0.2738,0.2971,3.9678,-3.8202,8.2123,0.999998,0,1698649100,17
-0.3853,0.0291,0.0481,0.326,0.1608,1.9008,-0.6838,1.1269,10.1001,0.8498,-0.5595,-0.3822,-0.5347,2.3477,5.6472,8.5257,0.5227,0.4076,0.1093,3.8968,-3.7569,8.1978,0.999998,0,1698649100,18
-0.3865,-0.0005,0.0514,0.3332,0.3723,2.132,-0.6116,1.4146,10.1205,0.7041,-0.6113,-0.3065,-0.5385,2.4097,5.6175,8.4744,0.4154,0.4733,-0.1099,3.8051,-3.7168,8.2213,0.999999,0,1698649100,19
-0.3879,-0.0259,0.0545,0.3258,0.3397,2.3166,-0.6006,1.4751,10.2673,0.6934,-0.5825,-0.0569,-0.4895,2.499,5.6008,8.4441,0.2954,0.4902,-0.3048,3.702,-3.7124,8.2647,0.999999,0,1698649100,19
-0.3893,-0.042,0.0575,0.3257,0.1167,2.5376,-0.5981,1.3858,10.5,0.6374,-0.3207,0.6977,-0.4131,2.5729,5.6082,8.5243,0.1102,0.4206,-0.4315,3.6121,-3.7242,8.3315,0.999999,0,1698649100,20
-0.3901,-0.0365,0.0603,0.3108,-0.0488,2.7723,-0.6208,1.299,10.5896,0.5114,-0.2384,0.9438,-0.2549,2.6313,5.6305,8.6323,-0.1018,0.2481,-0.4941,3.5419,-3.7655,8.4494,0.999999,0,1698649100,21
-0.3893,0.0133,0.062,0.2602,-0.2703,2.9043,-0.6393,0.9521,10.7163,0.8115,-0.4735,0.1388,-0.0408,2.7045,5.6764,8.7518,-0.2486,-0.0844,-0.4848,3.4904,-3.8603,8.6388,0.999999,0,1698649100,21
-0.3867,0.1129,0.0624,0.1928,-0.5633,2.8058,-0.6025,0.1253,10.9888,1.3433,-0.761,-0.9969,0.2132,2.7999,5.7524,8.9124,-0.3567,-0.5455,-0.3949,3.4477,-3.9824,8.9092,1,0,1698649100,22
-0.3822,0.2617,0.0622,0.1348,-0.7978,2.6534,-0.5203,-0.6813,11.239,1.6178,-0.8718,-1.5314,0.5103,2.8999,5.8299,9.1137,-0.5011,-1.0911,-0.2339,3.3956,-4.1346,9.2488,1,0,1698649100,23
-0.3754,0.3795,0.0617,0.0829,-1.0054,2.529,-0.3431,-1.3721,11.2106,2.1677,-0.7584,-1.2418,0.7512,3.0059,5.9406,9.3665,-0.6798,-1.6598,-0.0151,3.3674,-4.285,9.6101,0.999997,0,1698649100,23
-0.3685,0.4061,0.06,0.0106,-0.9034,2.1887,-0.0793,-1.9031,10.9381,2.8364,-0.5042,-0.376,0.8455,3.1024,6.148,9.6475,-0.8219,-2.1603,0.2562,3.3789,-4.3897,9.9584,0.999963,0,1698649100,24
-0.3633,0.4031,0.0563,-0.0973,-0.4764,1.5869,0.2508,-2.1157,10.7971,3.1303,-0.0511,0.5436,0.836,3.1353,6.4523,9.8886,-0.8736,-2.5465,0.5548,3.4164,-4.4548,10.2637,0.99983,0,1698649100,25
-0.3599,0.3624,0.0499,-0.2514,-0.1457,0.9823,0.6308,-2.2661,10.7083,3.1124,0.1866,1.0636,0.8389,3.0877,6.8177,10.0787,-0.8481,-2.8516,0.8224,3.4541,-4.489,10.4904,0.999324,0,1698649100,26
-0.359,0.2873,0.0409,-0.4244,-0.0745,0.4914,0.9848,-2.3275,10.7854,2.9608,0.0032,0.9178,0.9289,2.9425,7.174,10.227,-0.7993,-3.103,1.0201,3.4871,-4.4883,10.614,0.998172,0,1698649100,26
-0.3591,0.2347,0.0308,-0.5656,0.0932,-0.1013,1.3049,-2.2112,10.8126,3.0299,-0.2228,0.2754,1.1429,2.6896,7.4815,10.2772,-0.7486,-3.1756,1.137,3.5483,-4.3977,10.6334,0.99764,0,1698649100,27
-0.359,0.197,0.0194,-0.69,0.3922,-0.7073,1.5007,-1.8835,10.5306,3.2875,-0.4572,-0.6377,1.4513,2.3722,7.6794,10.1424,-0.699,-2.9585,1.1537,3.5953,-4.2552,10.5357,0.996823,0,1698649100,28
-0.3589,0.1692,0.0056,-0.8653,0.5222,-1.1082,1.5258,-1.3809,10.4001,3.412,-0.6793,-1.5438,1.7344,2.0304,7.7172,9.8894,-0.6341,-2.5375,1.0737,3.5896,-4.1319,10.3044,0.984216,0,1698649100,28
-0.358,0.1938,-0.0099,-1.0298,0.7698,-1.4767,1.3765,-1.1586,10.9503,3.0364,-0.741,-1.9306,1.864,1.7006,7.6155,9.6264,-0.541,-2.0547,0.9435,3.516,-4.0343,9.9674,0.937462,0,1698649100,29
-0.355,0.2624,-0.027,-1.1936,1.0388,-1.6794,1.045,-0.928,11.1994,2.4084,-0.7182,-1.8987,1.8828,1.4013,7.4096,9.2825,-0.4696,-1.5756,0.74,3.3395,-3.9342,9.5458,0.850022,0,1698649100,30
-0.3493,0.3502,-0.0459,-1.3451,0.975,-1.5718,0.5651,-0.3087,10.4925,2.3312,-0.8513,-1.9379,1.8761,1.1272,7.166,8.8374,-0.4661,-1.0876,0.4218,3.0999,-3.82,9.1026,0.778661,0,1698649100,30
-0.3409,0.4617,-0.0665,-1.4998,0.8845,-1.4618,0.0441,0.1638,9.8423,2.7712,-1.0604,-1.7552,1.9663,0.9691,6.8405,8.4051,-0.535,-0.5774,0.0451,2.8223,-3.7097,8.6809,0.736991,0,1698649100,31
-0.3307,0.5697,-0.0883,-1.696,0.914,-1.3508,-0.3871,0.3902,9.5231,3.1278,-1.0507,-0.6742,1.9231,0.9417,6.4433,8.1167,-0.6575,-0.1018,-0.3157,2.51,-3.5917,8.2897,0.704259,0,1698649100,32
-0.3201,0.653,-0.1104,-1.8316,0.9923,-1.1495,-0.6444,0.4461,9.2888,3.3579,-1.1616,0.0393,1.725,0.8683,6.0699,7.8287,-0.8277,0.1824,-0.5925,2.2045,-3.4573,7.9751,0.692134,0,1698649100,32
-0.3097,0.7455,-0.1325,-1.9478,0.9465,-0.919,-0.7292,0.3219,9.3823,3.4645,-1.5332,-0.2255,1.549,0.7787,5.7956,7.5329,-1.0587,0.1134,-0.7615,1.9531,-3.3264,7.7565,0.703142,0,1698649100,33
-0.2996,0.809,-0.1544,-2.0708,0.7082,-0.6574,-0.6766,0.1156,9.6995,3.4209,-1.6735,-0.0604,1.1958,0.7903,5.6563,7.4007,-1.3046,-0.3135,-0.8493,1.8212,-3.2218,7.65,0.529845,0,1698649100,34
-0.2899,0.8328,-0.176,-2.1801,0.4822,-0.4388,-0.5455,-0.1887,9.8371,3.406,-1.5891,0.3081,0.7332,0.8405,5.6069,7.3097,-1.5143,-0.9245,-0.8681,1.8398,-3.1451,7.6619,0.196296,0,1698649100,34
-0.2778,0.8697,-0.2015,-2.1917,0.2367,-0.286,-0.3771,-0.5609,9.8748,3.365,-1.4681,0.2577,0.2656,0.9345,5.6202,7.2597,-1.6713,-1.4793,-0.8486,1.9596,-3.1165,7.7756,-0.067503,0,1698649100,35
-0.2656,0.9224,-0.2262,-2.115,-0.0391,-0.1759,-0.2097,-0.936,9.71,3.3666,-1.2779,0.1521,-0.2271,1.1092,5.6644,7.3296,-1.754,-1.8215,-0.8215,2.1197,-3.1681,7.9845,-0.275018,0,1698649100,36
-0.2561,0.9446,-0.2468,-2.1054,-0.1767,-0.1884,-0.1163,-1.2789,9.6368,3.4528,-1.067,0.0198,-0.695,1.3068,5.7124,7.4531,-1.7475,-1.9808,-0.7706,2.2868,-3.2587,8.2147,-0.436783,0,1698649100,37
-0.2463,0.9657,-0.2674,-2.0864,-0.362,-0.2381,-0.1461,-1.4929,9.53,3.5492,-0.9152,-0.2448,-1.0439,1.5274,5.7376,7.5643,-1.6436,-1.9316,-0.6732,2.4591,-3.3542,8.3894,-0.562516,0,1698649100,37
-0.2359,0.9725,-0.2878,-1.9926,-0.649,-0.3236,-0.2689,-1.5808,9.4328,3.5369,-0.7197,-0.2979,-1.2553,1.7704,5.7521,7.7012,-1.4837,-1.549,-0.5446,2.6486,-3.4609,8.4939,-0.660186,0,1698649100,38
-0.2266,0.923,-0.3063,-1.9076,-0.7194,-0.506,-0.4426,-1.6459,9.4228,3.4509,-0.5662,-0.2658,-1.3232,1.9674,5.7586,7.8339,-1.3373,-0.9588,-0.3979,2.835,-3.5594,8.5459,-0.736055,0,1698649100,39
-0.219,0.8895,-0.3234,-1.8622,-0.6148,-0.6825,-0.6526,-1.7544,9.4204,3.3491,-0.4648,-0.2664,-1.2814,2.1044,5.7692,7.9069,-1.2568,-0.1961,-0.3317,3.022,-3.6083,8.5472,-0.794986,0,1698649100,39
-0.2114,0.8713,-0.3401,-1.8511,-0.4551,-0.8708,-0.8924,-1.8986,9.5212,3.2391,-0.3401,-0.2217,-1.1577,2.1766,5.7994,7.9245,-1.248,0.4611,-0.4584,3.1855,-3.6164,8.5523,-0.840759,0,1698649100,40
-0.2034,0.8898,-0.3562,-1.8074,-0.2501,-1.1048,-1.1656,-1.948,9.4832,3.1795,-0.2432,-0.153,-0.967,2.2043,5.8255,7.9269,-1.2156,0.9878,-0.6164,3.2886,-3.6218,8.5276,-0.876313,0,1698649100,41
-0.1948,0.9288,-0.3726,-1.7317,-0.0849,-1.3146,-1.4408,-1.8349,9.2281,3.1934,-0.1219,-0.0322,-0.7823,2.1983,5.8314,7.9088,-1.1768,1.5553,-0.7519,3.322,-3.6172,8.4537,-0.903929,0,1698649100,41
-0.1863,0.9186,-0.3873,-1.6396,-0.0776,-1.4231,-1.7032,-1.5933,8.9781,3.1937,0.0166,0.0505,-0.6507,2.126,5.8049,7.8485,-1.2208,1.8888,-0.9748,3.2859,-3.588,8.3671,-0.925379,0,1698649100,42
-0.178,0.8909,-0.4011,-1.5336,-0.1376,-1.4767,-1.9249,-1.3763,9.0146,3.0235,0.1404,0.1556,-0.586,1.9796,5.7638,7.7872,-1.3205,2.1018,-1.2587,3.2271,-3.5413,8.2443,-0.942039,0,1698649100,43
-0.1696,0.8869,-0.4144,-1.423,-0.1279,-1.5243,-2.109,-1.2847,9.0197,2.791,0.2229,0.2117,-0.5707,1.795,5.7313,7.7185,-1.4509,2.4189,-1.5303,3.1537,-3.5042,8.0682,-0.95498,0,1698649100,43
-0.1614,0.8843,-0.4263,-1.3408,-0.088,-1.5254,-2.2511,-1.2117,8.8326,2.6406,0.258,0.1812,-0.5835,1.6209,5.7066,7.6354,-1.7021,2.6167,-1.7737,3.0357,-3.4655,7.8392,-0.965032,0,1698649100,44
-0.1535,0.8694,-0.4372,-1.3114,-0.1397,-1.5119,-2.3462,-1.0986,8.7831,2.5808,0.212,0.0756,-0.6225,1.4894,5.6853,7.5675,-2.0464,2.5095,-1.9764,2.9256,-3.4135,7.6498,-0.972839,0,1698649100,45
-0.145,0.8523,-0.4478,-1.2586,-0.1355,-1.5397,-2.4115,-1.1045,8.9049,2.5238,0.0902,-0.0515,-0.6962,1.4164,5.6564,7.5368,-2.3249,2.4084,-2.0886,2.8714,-3.3718,7.5385,-0.978903,0,1698649100,46
-0.1358,0.856,-0.4576,-1.1694,-0.0768,-1.5774,-2.4376,-1.2225,8.9692,2.4085,-0.0521,-0.1153,-0.8361,1.4067,5.6134,7.5141,-2.4662,2.3017,-2.1222,2.8164,-3.3354,7.4957,-0.983614,0,1698649100,46
-0.1271,0.8534,-0.4661,-1.0853,-0.0509,-1.6162,-2.4254,-1.3285,9.0662,2.2161,-0.1942,-0.0712,-1.0402,1.4302,5.5576,7.4802,-2.4805,2.0203,-2.0911,2.7879,-3.2918,7.5017,-0.987272,0,1698649100,47
-0.1191,0.8086,-0.4727,-0.9888,-0.0128,-1.6616,-2.3776,-1.4491,9.153,1.9966,-0.3208,0.0006,-1.2814,1.4516,5.5121,7.4362,-2.3902,1.7216,-1.9954,2.8045,-3.2792,7.5386,-0.990114,0,1698649100,48
-0.1113,0.7892,-0.4775,-0.8547,-0.06,-1.6415,-2.3021,-1.4883,9.0708,1.8579,-0.4089,0.2269,-1.5276,1.4996,5.4866,7.4012,-2.251,1.6311,-1.9082,2.8706,-3.2848,7.5805,-0.992321,0,1698649100,48
-0.1038,0.7822,-0.4803,-0.6962,-0.146,-1.6173,-2.2026,-1.3872,8.9466,1.8231,-0.4543,0.3267,-1.7503,1.5847,5.4695,7.37,-2.1302,1.6289,-1.8977,2.9564,-3.2889,7.6269,-0.994036,0,1698649100,49
-0.0971,0.7625,-0.4816,-0.5437,-0.241,-1.6386,-2.0844,-1.2683,8.8845,1.8065,-0.4546,0.1077,-1.9113,1.6831,5.4741,7.3292,-2.0653,1.3861,-1.932,3.0222,-3.2905,7.6645,-0.995367,0,1698649100,50
-0.0904,0.7428,-0.4818,-0.4102,-0.2696,-1.6918,-1.9449,-1.2334,8.8219,1.7399,-0.4046,-0.0658,-1.9938,1.7764,5.4892,7.2882,-2.0566,0.8412,-1.998,3.099,-3.2894,7.6611,-0.996402,0,1698649100,50
-0.0832,0.7311,-0.4816,-0.3098,-0.25,-1.7612,-1.7734,-1.193,8.6041,1.6812,-0.4006,-0.2679,-1.9889,1.8325,5.4905,7.2349,-2.0533,0.4794,-2.0952,3.1998,-3.3058,7.654,-0.997205,0,1698649100,51
-0.0761,0.7515,-0.4814,-0.2429,-0.338,-1.764,-1.5866,-1.1076,8.5319,1.5785,-0.407,-0.4385,-1.9569,1.8721,5.4992,7.1933,-2.026,0.5571,-2.2124,3.2878,-3.3202,7.6789,-0.997829,0,1698649101,52
-0.0692,0.7539,-0.4805,-0.1559,-0.4983,-1.7014,-1.3937,-0.9119,8.7605,1.4257,-0.3207,-0.4312,-1.979,1.8933,5.5047,7.1572,-1.9298,0.7948,-2.3427,3.3344,-3.3298,7.7121,-0.998314,0,1698649101,52
-0.0622,0.7284,-0.4781,-0.0252,-0.5376,-1.6511,-1.1612,-0.8328,8.9041,1.3842,-0.2528,-0.4802,-1.9841,1.9332,5.4841,7.1091,-1.7435,1.1259,-2.5027,3.3487,-3.3356,7.7286,-0.99869,0,1698649101,53
-0.0552,0.7123,-0.474,0.0956,-0.5724,-1.5618,-0.8963,-0.8147,8.6837,1.483,-0.2087,-0.4994,-1.9805,2.0025,5.4603,7.0956,-1.4922,1.4019,-2.7037,3.2986,-3.3329,7.7513,-0.998983,0,1698649101,54
-0.0479,0.7062,-0.469,0.1842,-0.6744,-1.4549,-0.6292,-0.6595,8.57,1.545,-0.1616,-0.3661,-2.0041,2.0367,5.4622,7.1281,-1.2425,1.4569,-2.928,3.2223,-3.3301,7.8018,-0.99921,0,1698649101,54
-0.0407,0.692,-0.4634,0.2654,-0.6565,-1.4008,-0.3637,-0.6229,8.704,1.5259,-0.1088,-0.306,-2.0165,2.0724,5.4553,7.1528,-1.0392,1.3939,-3.1107,3.178,-3.3171,7.8573,-0.999386,0,1698649101,55
-0.0336,0.6748,-0.458,0.3245,-0.5616,-1.3298,-0.1064,-0.6616,8.7121,1.5361,-0.0422,-0.3454,-2.0056,2.1149,5.4361,7.1578,-0.8574,1.3424,-3.1665,3.1618,-3.3001,7.9095,-0.999523,0,1698649101,56
-0.0267,0.6585,-0.4528,0.3737,-0.4232,-1.2466,0.1369,-0.6777,8.6065,1.6197,-0.0084,-0.4296,-1.9742,2.1486,5.4471,7.1634,-0.6898,1.2777,-3.1068,3.1489,-3.284,7.9655,-0.999629,0,1698649101,57
-0.0201,0.6482,-0.4477,0.4157,-0.354,-1.1666,0.3344,-0.6523,8.556,1.711,0.0008,-0.5505,-1.9421,2.1904,5.4701,7.1599,-0.5698,1.1747,-2.9991,3.1603,-3.2677,8.0118,-0.999703,0,1698649101,57
-0.0134,0.6381,-0.4439,0.4143,-0.3301,-1.1402,0.4997,-0.7432,8.761,1.6984,0.0114,-0.6631,-1.9069,2.2597,5.5045,7.154,-0.486,1.0137,-2.8966,3.1862,-3.2484,8.0442,-0.999743,0,1698649101,58
-0.0068,0.6227,-0.4408,0.3769,-0.2773,-1.1236,0.8617,-1.2796,8.9679,1.4382,0.158,-0.9169,-1.8512,2.4461,5.5802,7.2067,-0.2849,0.6892,-2.7473,3.1905,-3.2255,8.0769,-0.999745,0,1698649101,59
0.0013,0.6059,-0.4355,0.3665,-0.2466,-1.181,0.9843,-1.3624,9.0754,1.3033,0.2783,-1.0355,-1.8134,2.5182,5.6032,7.2446,-0.1241,0.5318,-2.69,3.176,-3.2292,8.1001,-0.999753,0,1698649101,59
0.0092,0.5799,-0.4296,0.3783,-0.1368,-1.3117,1.0625,-1.4319,9.0492,1.2748,0.3215,-1.131,-1.7158,2.5848,5.6314,7.2941,-0.0052,0.3924,-2.637,3.1768,-3.2356,8.085,-0.997489,0,1698649101,60
0.0151,0.5625,-0.4256,0.379,-0.1179,-1.3961,1.0968,-1.4078,9.1471,1.2382,0.3721,-1.2239,-1.5888,2.643,5.6643,7.3649,-0.0014,0.3336,-2.5736,3.2121,-3.2411,8.0359,-0.994995,0,1698649101,61
0.0207,0.5532,-0.4215,0.3914,-0.0572,-1.5119,1.1013,-1.3052,9.2052,1.2223,0.425,-1.3268,-1.4391,2.6874,5.6933,7.4372,-0.0488,0.3348,-2.44,3.2471,-3.2157,8.0185,-0.99517,0,1698649101,61
0.026,0.5348,-0.4168,0.4441,0.0359,-1.6377,1.1091,-1.3283,9.1616,1.2289,0.4295,-1.4757,-1.2853,2.7195,5.7348,7.4988,-0.0975,0.3852,-2.2093,3.2862,-3.1703,8.0238,-0.996012,0,1698649101,62
0.0313,0.5263,-0.4117,0.483,0.1884,-1.7243,1.0997,-1.3918,9.2958,1.1785,0.3452,-1.6937,-1.1301,2.753,5.7871,7.5746,-0.1327,0.4669,-1.8878,3.3164,-3.1537,8.0316,-0.996845,0,1698649101,63
0.0364,0.5297,-0.4079,0.4337,0.3409,-1.7984,1.0439,-1.3601,9.4867,1.1257,0.2039,-1.909,-0.9822,2.7974,5.8264,7.664,-0.1525,0.521,-1.5409,3.3214,-3.166,8.0551,-0.997485,0,1698649101,63
0.0421,0.5459,-0.4061,0.3421,0.3613,-1.8083,0.9375,-1.2871,9.7103,1.0938,0.0694,-1.9961,-0.8674,2.8509,5.8521,7.7489,-0.1457,0.4923,-1.2135,3.3105,-3.2167,8.089,-0.997966,0,1698649101,64
0.0485,0.5916,-0.4059,0.2555,0.3806,-1.7742,0.7926,-1.1975,9.7528,1.1,-0.0385,-1.9385,-0.7884,2.928,5.8549,7.8315,-0.1284,0.378,-0.9081,3.2888,-3.29,8.12,-0.998357,0,1698649101,65
0.0549,0.6058,-0.4061,0.1716,0.4093,-1.7664,0.6435,-1.1095,9.8135,1.0006,-0.141,-1.8256,-0.7211,3.0173,5.8473,7.9154,-0.1389,0.1809,-0.6402,3.2962,-3.3499,8.1622,-0.998673,0,1698649101,66
0.0613,0.5846,-0.4063,0.121,0.4707,-1.7859,0.5063,-1.1421,9.9252,0.8383,-0.1729,-1.593,-0.6313,3.073,5.8622,7.9862,-0.1947,-0.0965,-0.4082,3.3639,-3.3953,8.2326,-0.998934,0,1698649101,66
0.0676,0.5852,-0.4062,0.1098,0.5951,-1.8488,0.3827,-1.3532,9.9116,0.7193,-0.0997,-1.2786,-0.5104,3.0786,5.9117,8.0532,-0.2944,-0.4083,-0.2289,3.4909,-3.4453,8.3456,-0.999155,0,1698649101,67
0.0735,0.5748,-0.406,0.0989,0.6738,-1.9846,0.2603,-1.7065,10.092,0.5263,-0.0931,-1.0906,-0.3706,3.0562,6.0135,8.1424,-0.4246,-0.6676,-0.082,3.6523,-3.4983,8.5109,-0.999341,0,1698649101,68
0.0788,0.5532,-0.4046,0.1298,0.6327,-2.131,0.1303,-1.9685,10.4215,0.3847,-0.1945,-1.0289,-0.2116,2.9942,6.1599,8.2338,-0.5658,-0.8417,0.0679,3.8335,-3.5569,8.7179,-0.999488,0,1698649101,68
0.0838,0.5239,-0.4008,0.2269,0.525,-2.2174,0.0114,-1.9796,10.7219,0.3694,-0.3662,-1.1063,-0.0865,2.9474,6.302,8.3776,-0.6951,-0.9496,0.2304,4.0181,-3.6387,8.9428,-0.999602,0,1698649101,69
0.0882,0.499,-0.393,0.3712,0.5912,-2.3348,-0.0784,-1.8779,10.9621,0.4964,-0.5822,-1.2559,-0.0336,2.965,6.4324,8.5737,-0.8074,-1.0147,0.3634,4.177,-3.7608,9.1704,-0.999691,0,1698649101,70
0.0912,0.4543,-0.3816,0.5723,0.6836,-2.443,-0.1387,-1.685,11.2014,0.7774,-0.7985,-1.3908,-0.018,3.0171,6.577,8.8324,-0.9432,-1.0636,0.4199,4.2894,-3.9419,9.3995,-0.99976,0,1698649101,70
0.0926,0.3769,-0.3667,0.7804,0.7758,-2.4854,-0.2163,-1.3938,11.6585,1.1448,-0.9751,-1.5272,-0.0009,3.0809,6.7457,9.1691,-1.1237,-1.122,0.3998,4.3695,-4.1631,9.6804,-0.999814,0,1698649101,71
0.0932,0.3074,-0.3499,0.9499,1.0051,-2.456,-0.3609,-0.9709,11.9863,1.7123,-1.0355,-1.6109,0.0125,3.1449,6.9366,9.5335,-1.2861,-1.1878,0.3459,4.4617,-4.394,10.0152,-0.999855,0,1698649101,72
0.0934,0.2399,-0.3345,1.0896,1.1295,-2.2236,-0.5678,-0.2602,12.1826,2.3628,-1.0228,-1.6495,0.0143,3.2266,7.1126,9.8909,-1.3628,-1.2261,0.281,4.5627,-4.6441,10.3452,-0.999888,0,1698649101,72
0.0934,0.1834,-0.3211,1.1242,1.1912,-1.7985,-0.8146,0.5238,12.5463,2.9281,-0.9831,-1.6207,0.0251,3.3415,7.2197,10.1602,-1.3661,-1.1758,0.2075,4.6409,-4.9196,10.6456,-0.999913,0,1698649101,73
0.0931,0.1397,-0.3103,1.046,1.3047,-1.2996,-1.0285,0.9203,12.7095,3.2921,-0.9046,-1.4961,0.0778,3.4619,7.2631,10.3338,-1.3499,-1.02,0.1267,4.6415,-5.1876,10.879,-0.999932,0,1698649101,74
0.0923,0.0669,-0.3021,0.9493,1.3912,-0.7211,-1.1264,1.0032,12.3924,3.4847,-0.8052,-1.2834,0.2099,3.5413,7.2481,10.4299,-1.322,-0.8299,0.0221,4.5241,-5.4175,11.0295,-0.999943,0,1698649101,74
0.0901,-0.0441,-0.2968,0.8389,1.622,-0.2352,-1.1274,0.8343,11.9151,3.6536,-0.6965,-0.9469,0.4285,3.5289,7.1622,10.4639,-1.2935,-0.7172,-0.1154,4.3,-5.5871,11.1114,-0.98922,0,1698649101,75
0.0855,-0.1664,-0.2936,0.725,1.9223,0.2462,-1.0601,0.4786,11.5856,3.5614,-0.5728,-0.5074,0.7209,3.4044,7.0262,10.4355,-1.2492,-0.749,-0.2656,4.0023,-5.6746,11.0852,-0.762087,0,1698649101,76
0.0781,-0.35,-0.2903,0.6891,1.4925,0.9891,-0.9217,0.2544,11.9382,3.2665,-0.4743,-0.1345,1.0554,3.1845,6.8821,10.336,-1.1168,-0.8793,-0.3815,3.6876,-5.6677,10.8932,-0.373626,0,1698649101,77
0.0674,-0.5345,-0.2836,0.7397,0.8527,1.5474,-0.7188,-0.2084,12.8472,3.0923,-0.4207,0.2394,1.3954,2.949,6.7381,10.1291,-0.8708,-1.0615,-0.4476,3.3969,-5.592,10.5918,-0.06745,0,1698649101,77
0.0537,-0.7435,-0.2732,0.8546,0.839,1.7134,-0.4734,-0.6614,12.7861,3.181,-0.4064,0.7336,1.6858,2.6971,6.58,9.8189,-0.5451,-1.1971,-0.4402,3.1407,-5.4557,10.2155,0.170863,0,1698649101,78
0.0375,-1.0016,-0.2601,1.02,0.8445,1.7793,-0.2104,-0.7302,11.7142,3.395,-0.4088,0.9785,1.9191,2.3686,6.3797,9.4527,-0.1447,-1.2589,-0.3202,2.9243,-5.2766,9.757,0.355985,0,1698649101,79
0.0191,-1.2012,-0.247,1.1306,0.6179,1.845,0.0118,-0.6682,10.9514,3.4781,-0.3929,1.0035,2.1037,2.0076,6.1541,9.0573,0.278,-1.1731,-0.1657,2.7453,-5.0862,9.2549,0.499775,0,1698649101,79
-0.0001,-1.3763,-0.2343,1.1689,0.5705,1.7827,0.1742,-0.7342,10.6646,3.418,-0.337,1.0944,2.2616,1.651,5.907,8.648,0.6616,-0.9241,-0.0269,2.6249,-4.8928,8.7272,0.61146,0,1698649101,80
-0.0206,-1.5419,-0.2215,1.1691,0.6829,1.6764,0.3378,-0.9327,10.1396,3.3233,-0.2229,1.1914,2.3995,1.3246,5.622,8.2559,0.9955,-0.7376,0.0809,2.5333,-4.7165,8.2436,0.69821,0,1698649101,81
-0.0423,-1.661,-0.2091,1.1417,0.6014,1.696,0.5015,-0.8605,9.5474,3.3016,-0.0559,1.208,2.4828,1.0519,5.3625,7.9091,1.2513,-0.6728,0.1638,2.4076,-4.5338,7.8442,0.76559,0,1698649101,81
-0.0643,-1.7991,-0.198,1.1164,0.5432,1.7036,0.6662,-0.6964,9.2411,3.3628,0.1233,1.0982,2.5245,0.8499,5.1561,7.6111,1.3896,-0.6326,0.183,2.2884,-4.3595,7.4995,0.817927,0,1698649101,82
-0.0869,-1.8856,-0.1872,1.08,0.5697,1.6592,0.8384,-0.5476,8.8391,3.4867,0.2616,0.8552,2.5075,0.7382,4.9917,7.4007,1.4484,-0.6731,0.1263,2.215,-4.2333,7.2398,0.858579,0,1698649101,83
-0.1089,-1.9177,-0.177,1.0518,0.5748,1.4211,0.979,-0.4427,8.6834,3.5627,0.3741,0.5847,2.415,0.7303,4.8561,7.2911,1.4599,-0.765,0.0806,2.1638,-4.1537,7.0492,0.890154,0,1698649101,83
-0.1295,-1.9308,-0.1683,1.0314,0.5814,1.2574,1.1231,-0.4823,8.7576,3.6089,0.5127,0.5689,2.2545,0.7735,4.7341,7.2439,1.4485,-0.8099,0.1082,2.1338,-4.1295,6.92,0.914679,0,1698649101,84
-0.1492,-1.8871,-0.1593,0.9882,0.5183,1.3655,1.2547,-0.5206,8.7089,3.6752,0.6638,0.9665,2.054,0.8489,4.6592,7.2708,1.4336,-0.8704,0.2583,2.1275,-4.1321,6.8776,0.933729,0,1698649101,85
-0.1686,-1.8728,-0.1507,0.9448,0.4071,1.4708,1.3671,-0.4797,8.7192,3.6396,0.7462,1.1407,1.8378,0.9549,4.6421,7.3334,1.3692,-0.9097,0.4745,2.1643,-4.1331,6.8668,0.948525,0,1698649101,86
-0.1877,-1.8802,-0.1425,0.9142,0.302,1.5661,1.4604,-0.3822,8.8309,3.5882,0.6662,0.6897,1.6639,1.055,4.6596,7.4125,1.2647,-0.9249,0.7286,2.2357,-4.1389,6.9266,0.960018,0,1698649101,86
-0.2068,-1.9008,-0.1346,0.9158,0.2365,1.659,1.5345,-0.3022,8.8476,3.5832,0.564,0.2499,1.539,1.1781,4.721,7.5595,1.1682,-0.9478,1.0035,2.301,-4.1651,7.053,0.968945,0,1698649101,87
-0.2249,-1.8805,-0.1271,0.9187,0.1934,1.7498,1.5913,-0.1784,8.8301,3.5134,0.6064,0.1247,1.4395,1.3163,4.8121,7.7095,1.1051,-0.9434,1.2289,2.3582,-4.2228,7.1952,0.975879,0,1698649101,88
-0.2425,-1.8837,-0.1199,0.8705,0.1547,1.8076,1.591,0.0165,8.9271,3.4583,0.7869,0.3062,1.3835,1.4644,4.9079,7.8639,1.1013,-0.8667,1.3981,2.4247,-4.2909,7.383,0.981264,0,1698649101,88
-0.2611,-1.937,-0.112,0.842,0.1222,1.8713,1.584,0.1721,8.9298,3.4318,1.0003,0.6474,1.357,1.629,4.9967,8.0108,1.1708,-0.6649,1.5192,2.505,-4.3489,7.5905,0.985447,0,1698649101,89
-0.279,-1.8988,-0.1046,0.8467,0.1701,1.8934,1.5905,0.1968,9.0458,3.3931,1.1226,0.8596,1.3706,1.768,5.0668,8.1065,1.2742,-0.4348,1.6346,2.5736,-4.4036,7.7552,0.988696,0,1698649101,90
-0.2961,-1.8517,-0.0977,0.8122,0.2355,1.8817,1.6058,0.1034,9.1711,3.2799,1.1597,0.9486,1.4203,1.8528,5.1207,8.168,1.3689,-0.2935,1.7856,2.6452,-4.4476,7.8382,0.99122,0,1698649101,90
-0.3124,-1.8036,-0.091,0.7766,0.2778,1.9143,1.6441,-0.0167,9.1362,3.1543,1.1475,0.9955,1.4828,1.8988,5.1642,8.2156,1.4383,-0.2265,1.9319,2.7423,-4.4698,7.8741,0.99318,0,1698649101,91
-0.3274,-1.7327,-0.0849,0.7558,0.3055,1.9285,1.6968,-0.1204,9.2023,3.0861,1.1253,1.0695,1.5398,1.9242,5.2025,8.2714,1.545,-0.0457,2.1656,2.8498,-4.4609,7.9031,0.994703,0,1698649101,92
-0.3418,-1.6777,-0.0792,0.712,0.2572,1.9038,1.7386,-0.2317,9.5306,2.9067,1.074,1.1252,1.5824,1.9211,5.2341,8.3175,1.6364,0.1834,2.3088,2.9277,-4.4111,7.8502,0.995886,0,1698649101,92
-0.3554,-1.5867,-0.0743,0.6545,0.2392,1.8275,1.7839,-0.4791,9.8447,2.6557,0.9677,1.0646,1.595,1.9158,5.2558,8.3493,1.6427,-0.0503,2.3102,2.9839,-4.3648,7.784,0.996804,0,1698649101,93
-0.3681,-1.4926,-0.0694,0.6018,0.2355,1.7845,1.8293,-0.6405,9.9002,2.4794,0.8348,0.8947,1.5529,1.9187,5.2544,8.3852,1.6109,-0.5514,2.3367,3.0869,-4.352,7.779,0.997518,0,1698649101,94
-0.3798,-1.4172,-0.0649,0.5785,0.1184,1.7817,1.8355,-0.5608,9.9425,2.3869,0.7265,0.6989,1.4528,1.9505,5.218,8.4035,1.593,-0.6654,2.377,3.2113,-4.3453,7.7733,0.998072,0,1698649101,94
-0.3905,-1.3109,-0.0613,0.5493,-0.0219,1.7301,1.8157,-0.4564,10.1122,2.3441,0.6807,0.5834,1.318,2.0119,5.1673,8.3949,1.6089,-0.2127,2.427,3.3007,-4.3246,7.7705,0.998502,0,1698649101,95
-0.4002,-1.1811,-0.0578,0.5159,-0.1966,1.6926,1.8182,-0.5042,10.1224,2.3079,0.7184,0.6275,1.1826,2.0745,5.1197,8.3624,1.617,0.2837,2.4718,3.3153,-4.3066,7.7384,0.998837,0,1698649101,96
-0.4086,-1.0837,-0.0538,0.5127,-0.3885,1.6907,1.8235,-0.5156,10.0162,2.2272,0.8346,0.874,1.0757,2.1419,5.0779,8.2962,1.6037,0.4665,2.5722,3.2834,-4.2908,7.7062,0.999097,0,1698649101,97
-0.4152,-0.9606,-0.0498,0.4856,-0.4924,1.6663,1.797,-0.3703,9.8792,2.1851,0.9794,1.1123,1.0302,2.184,5.0323,8.229,1.5798,0.617,2.692,3.2925,-4.2633,7.6869,0.999298,0,1698649101,97
-0.4198,-0.7983,-0.0463,0.43,-0.6148,1.6635,1.7534,-0.2334,9.7524,2.1665,1.1686,1.2923,1.034,2.2216,4.979,8.1397,1.5399,0.8327,2.7697,3.3346,-4.2173,7.6285,0.999455,0,1698649101,98
-0.4223,-0.6627,-0.0431,0.3957,-0.9988,1.7192,1.6871,-0.0025,9.6548,2.1468,1.3923,1.605,1.0438,2.27,4.9322,8.0249,1.4773,0.9526,2.7908,3.3796,-4.1565,7.5474,0.999577,0,1698649101,99
-0.4235,-0.5392,-0.0395,0.4041,-1.2741,1.7711,1.6024,0.3119,9.4076,2.1557,1.5174,1.9349,1.0847,2.2897,4.8868,7.9242,1.3913,0.865,2.7339,3.4231,-4.1055,7.4715,0.999671,0,1698649101,99
-0.4241,-0.4215,-0.0349,0.4218,-1.2288,1.7994,1.5111,0.4798,9.1101,2.1576,1.4902,1.99,1.1514,2.2633,4.8392,7.8313,1.2818,0.6811,2.6105,3.4684,-4.0726,7.3987,0.999745,0,1698649101,0
-0.4241,-0.3383,-0.0299,0.4233,-1.1681,1.8282,1.3847,0.5039,8.9768,2.0749,1.44,1.865,1.1946,2.2041,4.8036,7.7541,1.1653,0.6431,2.449,3.4782,-4.0497,7.3342,0.999802,0,1698649101,1
-0.424,-0.2736,-0.0252,0.422,-1.0868,1.8395,1.2099,0.508,9.0144,1.8679,1.5051,1.8368,1.2001,2.1519,4.7832,7.6914,1.0824,0.9015,2.2921,3.4326,-4.0268,7.2843,0.999846,0,1698649101,1
-0.4239,-0.2096,-0.0208,0.4376,-1.1098,1.879,0.9957,0.4889,9.1131,1.6743,1.6203,2.0229,1.2069,2.113,4.7663,7.658,1.0351,1.2131,2.1719,3.3579,-4.004,7.2156,0.99988,0,1698649101,2
-0.4239,-0.1572,-0.0158,0.4518,-1.206,1.8935,0.7603,0.3386,9.1651,1.6017,1.79,2.5134,1.1935,2.0865,4.7435,7.6259,0.977,1.2889,2.0589,3.278,-3.9713,7.1184,0.999907,0,1698649101,3
-0.4238,-0.1144,-0.0106,0.452,-1.2237,1.8314,0.505,0.1649,9.1393,1.5696,1.9755,3.001,1.0935,2.0277,4.73,7.6276,0.8987,1.2072,1.9549,3.2202,-3.9336,7.0581,0.999928,0,1698649101,3
-0.4236,-0.0689,-0.0069,0.4228,-1.3158,1.7892,0.2241,0.0944,9.2699,1.4781,1.8417,2.7865,1.004,1.9417,4.7172,7.6312,0.8131,1.0262,1.8503,3.1699,-3.915,7.0381,0.999944,0,1698649101,4
-0.4233,-0.0379,-0.0043,0.3734,-1.5024,1.7334,-0.087,0.1174,9.431,1.3865,1.4472,1.9987,0.8978,1.9069,4.704,7.6195,0.7509,0.756,1.7529,3.1624,-3.9134,7.0329,0.999956,0,1698649101,5
-0.4231,-0.0333,-0.0021,0.344,-1.6822,1.6312,-0.3926,0.1674,9.3456,1.3818,1.1476,1.5462,0.7156,1.9262,4.7096,7.6828,0.7367,0.5044,1.7011,3.2133,-3.9239,7.0727,0.999966,0,1698649101,6
-0.4224,-0.0016,0.0007,0.3371,-1.8458,1.5297,-0.6564,0.2342,9.1506,1.417,1.0214,1.6012,0.5306,1.9631,4.727,7.7513,0.7555,0.3089,1.6958,3.2819,-3.95,7.1328,0.999974,0,1698649101,6
-0.4208,0.0536,0.0046,0.3557,-1.8527,1.4347,-0.8714,0.3108,8.9075,1.4197,1.0512,1.9276,0.3648,2.0083,4.7509,7.8127,0.8093,0.2253,1.7138,3.348,-3.9975,7.1971,0.99998,0,1698649101,7
-0.4176,0.1179,0.0088,0.3786,-1.6501,1.3276,-1.0462,0.2764,8.5997,1.471,1.1605,2.2767,0.2164,2.045,4.7912,7.904,0.8835,0.2626,1.7415,3.3804,-4.051,7.2689,0.999984,0,1698649101,8
-0.4128,0.2178,0.0135,0.4014,-1.3803,1.2453,-1.1853,0.2513,8.2968,1.555,1.1729,2.2521,0.0883,2.0457,4.8494,7.9811,0.9607,0.3444,1.7595,3.3823,-4.096,7.3421,0.999988,0,1698649101,8
-0.4071,0.3134,0.0188,0.4284,-1.1596,1.2223,-1.261,0.2887,8.1657,1.5614,1.0598,1.9637,0.0715,2.0374,4.915,8.0219,1.0138,0.3918,1.7548,3.3712,-4.136,7.4265,0.99999,0,1698649101,9
-0.4006,0.3989,0.025,0.4571,-0.9243,1.2343,-1.2866,0.2962,8.115,1.5324,0.9643,1.8343,0.1369,2.0516,4.9782,8.0569,1.0858,0.4158,1.7341,3.3592,-4.1479,7.5244,0.999993,0,1698649101,10
-0.3929,0.4634,0.0329,0.4881,-0.6393,1.2495,-1.2706,0.3006,8.2057,1.5067,0.7947,1.6511,0.249,2.0364,5.0449,8.1009,1.1545,0.4276,1.695,3.3626,-4.1544,7.6317,0.999994,0,1698649101,10
-0.3857,0.4873,0.0409,0.5158,-0.166,1.2614,-1.1499,0.2264,8.9184,1.4185,0.2697,0.2762,0.4837,1.9665,5.1587,8.1915,1.1481,0.2927,1.5825,3.4011,-4.2058,7.8527,0.999996,0,1698649101,11
-0.3788,0.4853,0.0486,0.5472,0.2514,1.2407,-1.0758,0.2422,9.2371,1.3755,0.1947,-0.0389,0.4928,1.9543,5.1918,8.2271,1.127,0.1616,1.5227,3.459,-4.2101,7.9588,0.999997,0,1698649101,12
-0.373,0.4472,0.0555,0.5477,0.5006,1.2307,-0.9885,0.2728,9.6204,1.3546,0.196,-0.1149,0.4709,1.9653,5.2255,8.2323,1.0978,0.0367,1.5052,3.5474,-4.2278,8.0947,0.999997,0,1698649101,12
-0.371,0.3727,0.061,0.5135,0.4709,1.1854,-0.8959,0.2528,9.7936,1.3884,0.2934,-0.1492,0.4019,2.0453,5.2774,8.2649,1.0888,-0.0577,1.5172,3.6221,-4.2531,8.2027,0.999998,0,1698649101,13
-0.3717,0.291,0.0659,0.4887,0.6967,1.1587,-0.7916,0.2057,9.8947,1.3211,0.4312,-0.2057,0.31,2.1582,5.3423,8.3301,1.0946,-0.1813,1.5751,3.7101,-4.28,8.3149,0.999998,0,1698649101,14
-0.3731,0.2103,0.07,0.4644,0.9607,1.1397,-0.6655,0.1617,9.811,1.2263,0.5425,-0.3578,0.2454,2.2769,5.4181,8.405,1.1187,-0.3524,1.6593,3.7536,-4.3033,8.3994,0.999999,0,1698649101,14
-0.3746,0.1226,0.0736,0.4454,1.0192,1.1479,-0.5223,0.1395,9.6992,1.177,0.6085,-0.476,0.1952,2.3825,5.4943,8.4803,1.1067,-0.5849,1.7085,3.7283,-4.3323,8.4687,0.999999,0,1698649101,15
-0.3764,0.0424,0.0778,0.4446,1.0245,1.2779,-0.3506,0.1759,9.7487,1.0996,0.6095,-0.595,0.152,2.457,5.5527,8.5575,1.0012,-0.7928,1.7092,3.756,-4.3402,8.6151,0.999999,0,1698649101,16
-0.378,0.0109,0.0834,0.4584,1.0091,1.4555,-0.1568,0.3542,9.7607,1.0257,0.537,-0.7607,0.1338,2.5103,5.6037,8.6504,0.7947,-0.95,1.645,3.7983,-4.3161,8.6523,0.999999,0,1698649101,17
-0.3785,0.0362,0.0888,0.4506,1.0244,1.6336,0.0006,0.6095,9.9507,0.9784,0.4364,-0.8895,0.1418,2.5638,5.6783,8.7621,0.464,-1.2562,1.4903,3.808,-4.3051,8.6746,1,0,1698649101,17
-0.3781,0.0706,0.0929,0.4061,1.0439,1.8042,0.1459,0.6982,10.4815,0.9689,0.3344,-1.0159,0.1548,2.6566,5.7742,8.8715,-0.0026,-1.753,1.29,3.8595,-4.3268,8.8239,1,0,1698649101,18
-0.3777,0.0759,0.0958,0.3612,0.9364,2.0442,0.3303,0.661,11.0413,0.9862,0.2236,-1.1235,0.1496,2.7982,5.8931,8.9841,-0.4374,-2.5276,1.0646,3.9322,-4.3465,8.9767,1,0,1698649101,19
-0.3772,0.0773,0.0976,0.3099,0.8111,2.2919,0.5494,0.5717,11.5024,1.1605,0.1103,-1.08,0.1276,2.944,6.0686,9.1295,-0.7769,-2.9809,0.8571,4.0699,-4.3787,9.1521,1,0,1698649102,19
-0.3754,0.1101,0.0982,0.2426,0.8075,2.509,0.7511,0.2783,11.4286,1.7796,0.0231,-0.8801,0.1199,3.0575,6.2853,9.3443,-1.0823,-2.8405,0.696,4.2576,-4.4743,9.4351,1,0,1698649102,20
-0.3712,0.1933,0.098,0.1701,0.6573,2.6231,0.964,-0.1941,11.1593,2.3693,0.0082,-0.5885,0.1259,3.1451,6.5215,9.6233,-1.3127,-2.774,0.5418,4.3667,-4.6084,9.7666,1,0,1698649102,21
-0.3648,0.3275,0.0967,0.0625,0.4273,2.5703,1.1285,-0.6503,11.1319,2.7356,0.0683,-0.2861,0.1186,3.2071,6.7643,9.9019,-1.4175,-2.8851,0.4238,4.4176,-4.7594,10.0794,1,0,1698649102,21
-0.357,0.4406,0.093,-0.0836,0.356,2.2966,1.2947,-1.1238,11.1731,3.1132,0.1456,-0.0419,0.13,3.2354,6.989,10.1013,-1.3447,-2.9748,0.3824,4.4522,-4.9097,10.3373,0.999999,0,1698649102,22
-0.3491,0.4931,0.0863,-0.2189,0.3757,1.8173,1.5337,-1.5422,11.547,3.2429,0.1894,0.1682,0.1908,3.2184,7.2408,10.2154,-1.1032,-2.961,0.3911,4.4837,-4.9886,10.5139,0.999995,0,1698649102,23
-0.3419,0.5076,0.077,-0.3782,0.4642,1.3581,1.7559,-1.7805,11.696,3.3118,0.1928,0.2923,0.2883,3.1364,7.4769,10.2885,-0.8074,-2.8233,0.369,4.4972,-4.9945,10.6048,0.999983,0,1698649102,23
-0.3355,0.5103,0.0664,-0.5437,0.412,0.9384,1.9609,-1.7529,11.676,3.3924,0.1418,0.1048,0.4672,2.9622,7.6524,10.3009,-0.5572,-2.5919,0.2878,4.5005,-4.9467,10.6316,0.999921,0,1698649102,24
-0.3305,0.4866,0.054,-0.7133,0.2981,0.5101,2.1202,-1.5887,11.7751,3.4621,0.0297,-0.4047,0.6811,2.734,7.7461,10.2058,-0.3544,-2.2903,0.1532,4.487,-4.8302,10.5711,0.999415,0,1698649102,25
-0.3261,0.4692,0.0384,-0.9504,0.219,0.1459,2.1766,-1.3882,11.5359,3.5484,-0.0847,-0.9418,0.785,2.5398,7.7195,9.9784,-0.1431,-1.8439,-0.0016,4.426,-4.6729,10.3897,0.984415,0,1698649102,26
-0.3211,0.513,0.021,-1.1982,0.0605,-0.1242,2.0806,-1.1603,11.2055,3.644,-0.1471,-1.25,0.7661,2.4129,7.5984,9.6282,0.1156,-1.25,-0.1423,4.3032,-4.5085,10.1133,0.865846,0,1698649102,26
-0.3149,0.5963,0.0016,-1.4596,-0.0908,-0.2965,1.8458,-0.9151,10.8439,3.7995,-0.1103,-1.2133,0.6942,2.3213,7.3837,9.2083,0.3881,-0.5842,-0.3147,4.0863,-4.3231,9.7653,0.726561,0,1698649102,27
-0.3074,0.6714,-0.0214,-1.7304,-0.2654,-0.3426,1.4811,-0.5315,10.4154,3.9193,-0.0732,-1.3688,0.3845,2.1508,7.0863,8.7044,0.6338,0.1026,-0.5534,3.7836,-4.1095,9.3466,0.695017,0,1698649102,28
-0.2983,0.7179,-0.0474,-1.9439,-0.3201,-0.3562,1.0666,-0.1725,10.0743,3.9877,-0.1569,-1.4785,0.276,2.0068,6.7316,8.158,0.7992,0.7868,-0.8189,3.4154,-3.8953,8.8794,0.714787,0,1698649102,28
-0.2887,0.7365,-0.074,-2.1191,-0.3106,-0.2926,0.7054,0.0801,9.6448,3.9825,-0.1512,-0.8701,0.4465,1.9621,6.3723,7.7256,1.0443,1.2067,-1.0813,3.0094,-3.6883,8.3963,0.758719,0,1698649102,29
-0.2793,0.7407,-0.099,-2.1756,-0.3645,-0.1606,0.4326,0.1809,9.3346,3.8583,-0.0496,-0.1111,0.481,1.8543,6.0484,7.3798,1.0626,1.5813,-1.3611,2.5767,-3.5074,7.9821,0.809844,0,1698649102,30
-0.2706,0.7378,-0.1234,-2.2075,-0.3604,-0.0376,0.2283,0.0627,9.3134,3.6064,-0.0244,0.1664,0.5342,1.7092,5.7926,7.0771,0.6857,1.9942,-1.6712,2.1476,-3.375,7.6889,0.844977,0,1698649102,30
-0.262,0.7511,-0.1482,-2.2424,-0.3487,0.0886,0.0739,-0.2087,9.3114,3.4528,0.0071,0.4656,0.5601,1.5767,5.6331,6.8972,0.2889,2.0456,-1.9522,1.779,-3.2716,7.5136,0.835339,0,1698649102,31
-0.2534,0.7844,-0.1709,-2.177,-0.4052,0.1858,-0.0443,-0.4882,9.2756,3.4139,0.0444,0.8837,0.5275,1.4283,5.5536,6.8345,-0.073,1.7276,-2.115,1.497,-3.1979,7.4474,0.774032,0,1698649102,32
-0.2456,0.8146,-0.1917,-2.0965,-0.5275,0.2877,-0.1557,-0.694,9.2435,3.3209,0.0299,0.9852,0.4348,1.2885,5.5459,6.8438,-0.3625,1.1048,-2.3522,1.333,-3.1728,7.4791,0.710745,0,1698649102,32
-0.2381,0.8329,-0.2119,-2.0252,-0.6762,0.389,-0.2704,-0.8988,9.3175,3.1982,0.0041,1.0214,0.2938,1.1761,5.6198,6.9242,-0.5534,0.3484,-2.3908,1.2856,-3.1784,7.5821,0.684136,0,1698649102,33
-0.2304,0.8193,-0.2313,-1.9862,-0.7593,0.4183,-0.4217,-1.0766,9.4298,3.1004,0.0046,1.0751,0.1177,1.1298,5.7686,7.0749,-0.6232,-0.4045,-2.0228,1.3284,-3.2346,7.7332,0.606705,0,1698649102,34
-0.2221,0.8278,-0.251,-1.9274,-0.8298,0.3465,-0.6201,-1.1869,9.4777,3.0454,-0.0223,0.9958,-0.0854,1.1496,5.9366,7.2644,-0.5778,-0.9944,-1.5725,1.4591,-3.3232,7.9024,0.38256,0,1698649102,34
-0.2133,0.8762,-0.2699,-1.8412,-0.8428,0.231,-0.8152,-1.3188,9.5213,3.0106,-0.1378,0.6998,-0.3106,1.2081,6.0721,7.4621,-0.4785,-1.3077,-1.1043,1.6374,-3.4176,8.0268,0.095222,0,1698649102,35
-0.2044,0.8972,-0.2883,-1.8147,-0.7541,0.0953,-1.0008,-1.444,9.5456,2.955,-0.2429,0.4112,-0.5434,1.2954,6.1846,7.6594,-0.3563,-1.3388,-0.6375,1.8639,-3.5054,8.1887,-0.14921,0,1698649102,36
-0.1955,0.9157,-0.306,-1.7866,-0.6545,-0.074,-1.1816,-1.5105,9.5866,2.8883,-0.2768,0.2833,-0.7234,1.387,6.2779,7.8066,-0.2179,-1.1236,-0.2272,2.1116,-3.5789,8.338,-0.33916,0,1698649102,37
-0.187,0.9291,-0.3228,-1.7267,-0.5771,-0.226,-1.3476,-1.452,9.5797,2.8354,-0.269,0.2666,-0.8027,1.512,6.3468,7.88,-0.1104,-0.7416,0.0685,2.357,-3.6259,8.4518,-0.486705,0,1698649102,37
-0.1789,0.8957,-0.3389,-1.7281,-0.4957,-0.4037,-1.4919,-1.3825,9.6029,2.7478,-0.2468,0.3124,-0.7969,1.6362,6.3745,7.9018,-0.0473,-0.2924,0.2164,2.5949,-3.6223,8.5434,-0.601308,0,1698649102,38
-0.1709,0.8817,-0.3545,-1.7112,-0.3388,-0.6065,-1.6363,-1.401,9.5152,2.6902,-0.2721,0.302,-0.7235,1.7001,6.3417,7.859,-0.0333,0.2201,0.2042,2.7877,-3.5914,8.5531,-0.690172,0,1698649102,39
-0.163,0.8726,-0.3694,-1.6529,-0.1666,-0.7734,-1.7817,-1.3907,9.2441,2.6588,-0.3327,0.2027,-0.5744,1.7396,6.2892,7.7684,-0.0855,0.7741,0.0312,2.9372,-3.5525,8.5387,-0.686646,0,1698649102,39
-0.1555,0.8252,-0.3831,-1.6146,-0.0848,-0.8928,-1.9075,-1.2761,9.0753,2.5765,-0.3593,0.0992,-0.3801,1.7692,6.2418,7.6608,-0.1464,1.2019,-0.2038,3.0215,-3.5113,8.4997,-0.598842,0,1698649102,40
-0.147,0.8004,-0.3963,-1.5098,0.0179,-1.0128,-2.0273,-1.1861,9.143,2.4826,-0.3169,-0.0085,-0.1943,1.7506,6.1868,7.5495,-0.1759,1.4788,-0.4178,3.0495,-3.4549,8.4379,-0.520431,0,1698649102,41
-0.1384,0.8087,-0.4075,-1.3671,0.3073,-1.1426,-2.1366,-1.2123,9.0221,2.4329,-0.2064,-0.1501,-0.0543,1.6762,6.1336,7.4518,-0.186,1.6325,-0.6428,3.0467,-3.3957,8.3396,-0.449253,0,1698649102,41
-0.1305,0.8292,-0.416,-1.241,0.5006,-1.1438,-2.2368,-1.0477,8.6495,2.4111,-0.0491,-0.3087,0.0161,1.5906,6.0918,7.3655,-0.1751,1.6888,-0.8619,3.0491,-3.3347,8.2157,-0.368627,0,1698649102,42
-0.1216,0.8794,-0.4231,-1.0926,0.6294,-1.0859,-2.3223,-0.7435,8.4889,2.4311,0.1209,-0.321,-0.0101,1.5172,6.0395,7.2466,-0.1675,1.7028,-1.0705,3.0424,-3.2654,8.0831,-0.255822,0,1698649102,43
-0.1117,0.9294,-0.4285,-0.9652,0.8547,-1.0511,-2.3776,-0.5706,8.4603,2.4589,0.2385,-0.1014,-0.0654,1.4591,5.9596,7.1326,-0.1709,1.6105,-1.2879,3.0284,-3.214,7.9443,-0.083603,0,1698649102,43
-0.101,0.9388,-0.4324,-0.8387,1.0408,-0.9645,-2.3712,-0.464,8.4435,2.4717,0.3153,-0.0084,-0.1928,1.4257,5.888,7.062,-0.1608,1.3982,-1.5146,3.0399,-3.1751,7.8143,0.107641,0,1698649102,44
-0.0901,0.9542,-0.435,-0.6755,1.1947,-0.8742,-2.286,-0.427,8.5208,2.4902,0.3536,-0.127,-0.4306,1.4474,5.8376,7.0162,-0.1428,1.2503,-1.6908,3.0748,-3.1334,7.696,0.261963,0,1698649102,45
-0.0795,0.9652,-0.4359,-0.5187,1.3041,-0.7649,-2.1552,-0.4733,8.6842,2.4471,0.3042,-0.2293,-0.692,1.5468,5.7935,6.9943,-0.1415,1.2224,-1.7867,3.1241,-3.1149,7.595,0.380258,0,1698649102,46
-0.0694,0.9401,-0.436,-0.4004,1.2952,-0.5845,-2.0041,-0.482,8.8099,2.3577,0.212,-0.2935,-0.9462,1.7068,5.7413,6.9852,-0.1712,1.1649,-1.8339,3.1637,-3.1156,7.5275,0.481995,0,1698649102,46
-0.0603,0.9009,-0.4361,-0.3199,1.1401,-0.3924,-1.8152,-0.4979,9.0411,2.1862,0.1183,-0.2956,-1.1692,1.8803,5.7162,7.0031,-0.2497,0.9882,-1.8578,3.1905,-3.0939,7.5012,0.570094,0,1698649102,47
-0.0524,0.853,-0.4364,-0.2641,0.9412,-0.2568,-1.5934,-0.6307,9.2164,2.0143,0.0447,-0.3092,-1.3586,2.0226,5.7176,7.0327,-0.3728,0.643,-1.856,3.1939,-3.0847,7.5148,0.601687,0,1698649102,48
-0.0459,0.7814,-0.4372,-0.2259,0.7279,-0.1669,-1.3539,-0.7973,9.1657,1.9187,0.0344,-0.2337,-1.4844,2.1368,5.7198,7.0547,-0.5154,0.2726,-1.8034,3.1829,-3.0755,7.5518,0.542535,0,1698649102,48
-0.0407,0.6793,-0.4382,-0.1963,0.4609,-0.0987,-1.1081,-0.9929,9.1908,1.781,0.0528,-0.0779,-1.5548,2.2298,5.7457,7.0755,-0.6738,0.0513,-1.7148,3.2006,-3.0384,7.607,0.326277,0,1698649102,49
-0.0364,0.5897,-0.4393,-0.1732,0.1767,-0.0441,-0.8875,-1.1465,9.2092,1.6712,0.0432,0.0253,-1.6095,2.3098,5.7772,7.1061,-0.8446,-0.0659,-1.6196,3.2421,-3.0163,7.6707,0.031341,0,1698649102,50
-0.0325,0.5442,-0.4402,-0.1459,-0.0934,-0.0195,-0.7016,-1.2217,9.2096,1.6533,0.0145,0.1105,-1.6512,2.3829,5.7938,7.1362,-1.0147,-0.1434,-1.5379,3.2907,-3.0288,7.7218,-0.198927,0,1698649102,50
-0.0289,0.5097,-0.4407,-0.1153,-0.3041,-0.0303,-0.5478,-1.2523,9.1989,1.6575,0.0084,0.2167,-1.6801,2.4424,5.8046,7.1725,-1.1631,-0.2181,-1.4959,3.3228,-3.0519,7.7519,-0.377783,0,1698649102,51
-0.0253,0.4815,-0.4406,-0.0939,-0.4745,-0.0343,-0.4275,-1.1913,9.2257,1.6041,0.0505,0.3461,-1.7069,2.4816,5.8181,7.2175,-1.2664,-0.3255,-1.4853,3.3172,-3.0545,7.764,-0.516705,0,1698649102,52
-0.0215,0.4663,-0.4406,-0.0773,-0.6214,-0.0852,-0.3409,-1.2108,9.2996,1.5563,0.1258,0.4134,-1.7362,2.4923,5.8197,7.2525,-1.3108,-0.5811,-1.4771,3.2998,-3.0384,7.7628,-0.624611,0,1698649102,52
-0.0168,0.4483,-0.4405,-0.0532,-0.7372,-0.1273,-0.283,-1.2628,9.243,1.4862,0.1672,0.4094,-1.7743,2.4771,5.8167,7.2676,-1.295,-0.529,-1.446,3.297,-3.0305,7.7553,-0.708424,0,1698649102,53
-0.0112,0.47,-0.4404,-0.0317,-1.0836,-0.1251,-0.2355,-1.2361,9.1588,1.4117,0.121,0.3526,-1.8124,2.4524,5.8111,7.2614,-1.241,-0.1017,-1.3657,3.2879,-3.0366,7.7507,-0.773524,0,1698649102,54
-0.0054,0.5009,-0.4403,-0.0213,-1.3476,-0.1557,-0.1704,-1.2589,9.1432,1.3926,0.0468,0.2659,-1.8539,2.43,5.81,7.2542,-1.1727,0.1952,-1.2291,3.2581,-3.0408,7.7452,-0.824086,0,1698649102,54
-0.0002,0.4845,-0.4402,-0.0055,-1.3081,-0.2111,-0.096,-1.2815,9.0867,1.3332,0.0079,0.2607,-1.9006,2.4076,5.8185,7.2414,-1.0932,0.385,-1.0668,3.2614,-3.0139,7.7393,-0.863358,0,1698649102,55
0.0046,0.4788,-0.44,0.0101,-1.2714,-0.3086,-0.0153,-1.3182,9.0126,1.2686,-0.0198,0.3334,-1.9284,2.3835,5.8217,7.2203,-1.0195,0.5426,-0.904,3.3107,-2.974,7.7438,-0.893864,0,1698649102,56
0.0098,0.5022,-0.4399,0.013,-1.2114,-0.4372,0.0628,-1.4045,8.8987,1.2408,-0.0983,0.3711,-1.8929,2.3725,5.8196,7.1961,-0.9674,0.6786,-0.7606,3.361,-2.951,7.7508,-0.917561,0,1698649102,57
0.0148,0.5085,-0.4393,0.0277,-1.0455,-0.6504,0.1201,-1.5036,8.888,1.1353,-0.2497,0.2845,-1.7869,2.3779,5.8161,7.1805,-0.9294,0.7673,-0.6611,3.4039,-2.9439,7.7658,-0.935967,0,1698649102,57
0.0197,0.5163,-0.4377,0.0763,-0.8587,-0.8765,0.1944,-1.6725,8.7281,1.1026,-0.4252,0.0196,-1.6407,2.3831,5.8155,7.1678,-0.8991,0.8182,-0.6179,3.4463,-2.9685,7.7976,-0.950264,0,1698649102,58
0.0251,0.5274,-0.4342,0.1584,-0.8107,-0.9976,0.2623,-1.6692,8.5681,1.1103,-0.5684,-0.3575,-1.4615,2.4094,5.8134,7.1519,-0.8798,0.8382,-0.6211,3.4765,-3.0026,7.8286,-0.961368,0,1698649102,59
0.0306,0.5148,-0.4297,0.2203,-0.7172,-1.1998,0.2852,-1.4954,8.721,1.0805,-0.6242,-0.5473,-1.2678,2.4851,5.8169,7.1764,-0.881,0.8239,-0.6541,3.4941,-3.0444,7.8664,-0.969994,0,1698649102,59
0.0356,0.4849,-0.4253,0.2732,-0.5415,-1.4754,0.3022,-1.502,8.8478,1.0939,-0.6275,-0.5729,-1.0628,2.5589,5.8273,7.2103,-0.9101,0.7761,-0.6994,3.5147,-3.0915,7.9155,-0.976693,0,1698649102,60
0.0406,0.4832,-0.4203,0.3565,-0.4689,-1.6622,0.3273,-1.5491,8.8177,1.1113,-0.6803,-0.7018,-0.8626,2.5796,5.8453,7.2458,-0.9659,0.7109,-0.7483,3.5569,-3.1243,7.9603,-0.981897,0,1698649102,61
0.0459,0.5052,-0.4142,0.4224,-0.4389,-1.8217,0.3408,-1.4917,8.7486,1.1425,-0.7784,-0.9238,-0.6884,2.5609,5.8836,7.2956,-1.0399,0.6389,-0.7845,3.6023,-3.1349,8.0112,-0.985939,0,1698649102,61
0.0514,0.4944,-0.408,0.4655,-0.3475,-1.9977,0.3488,-1.4254,8.8091,1.1691,-0.8743,-1.1082,-0.5369,2.5459,5.9425,7.3366,-1.1136,0.5481,-0.764,3.6276,-3.1415,8.1001,-0.989078,0,1698649102,62
0.0564,0.4967,-0.4022,0.4981,-0.2713,-2.1249,0.3533,-1.3493,8.9196,1.1921,-0.9206,-1.1252,-0.4124,2.5417,6.0254,7.3872,-1.164,0.4426,-0.7107,3.6727,-3.134,8.2382,-0.991517,0,1698649102,63
0.0612,0.5162,-0.3967,0.5158,-0.2003,-2.1931,0.338,-1.2407,9.0486,1.1767,-0.919,-1.032,-0.3063,2.5411,6.1085,7.4449,-1.1853,0.3539,-0.6368,3.7299,-3.1216,8.3791,-0.993411,0,1698649102,63
0.0663,0.5015,-0.392,0.4986,-0.0317,-2.2426,0.2937,-1.1305,9.1311,1.1641,-0.917,-0.9647,-0.2086,2.5387,6.1731,7.5029,-1.178,0.3258,-0.5394,3.7527,-3.1461,8.4832,-0.994882,0,1698649102,64
0.0712,0.4687,-0.3893,0.4368,0.1358,-2.2164,0.233,-0.9257,9.262,1.1369,-0.9529,-1.001,-0.1012,2.5241,6.2141,7.5631,-1.1527,0.3978,-0.4561,3.7345,-3.1927,8.5629,-0.996025,0,1698649102,65
0.0754,0.4581,-0.3885,0.3462,0.1876,-2.1857,0.144,-0.6321,9.6117,1.0063,-0.9433,-0.7582,0.0215,2.5077,6.2692,7.6356,-1.1168,0.5185,-0.3982,3.6913,-3.2625,8.6487,-0.996912,0,1698649102,66
0.0799,0.4514,-0.3885,0.2594,0.2508,-2.2863,0.0417,-0.5094,9.7609,0.8185,-0.9878,-0.6293,0.1074,2.4695,6.357,7.6972,-1.0617,0.5619,-0.3719,3.6278,-3.3617,8.7696,-0.997602,0,1698649102,66
0.0847,0.4392,-0.3884,0.2015,0.4252,-2.4301,-0.0336,-0.5838,9.7405,0.6333,-1.1562,-1.0567,0.1562,2.407,6.4489,7.7897,-0.9797,0.438,-0.3456,3.5397,-3.4772,8.9311,-0.998137,0,1698649102,67
