right_q,right_q_dot,left_q,left_q_dot,pelv_ang_1,pelv_ang_2,pelv_ang_3,pelv_acc_1,pelv_acc_1,pelv_acc_3,right_shoulder_ang_x,right_shoulder_ang_y,right_shoulder_ang_z,right_shoulder_acc_x,right_shoulder_acc_y,right_shoulder_acc_z,left_shoulder_ang_x,left_shoulder_ang_y,left_shoulder_ang_z,left_shoulder_acc_x,left_shoulder_acc_y,left_shoulder_acc_z,,,,Label
-0.3952,-0.4078,-0.0764,0.588,-1.5075,2.2841,1.3159,0.076,9.0571,0.9455,0.0587,0.6096,-0.3171,0.4653,1.9477,8.8327,-0.4737,1.1508,0.2915,-0.2134,-5.2666,6.5607,0.999377,0,1698371510,0
-0.395,-0.3122,-0.0699,0.6053,-1.5763,2.2175,1.1283,0.0879,9.2123,0.865,0.1041,0.6325,-0.1428,0.4734,1.9317,8.8614,-0.5724,1.0573,0.6137,-0.1601,-5.3422,6.6372,0.999516,0,1698371510,1
-0.3948,-0.2309,-0.0632,0.6419,-1.6698,2.1436,0.9374,0.0576,9.3296,0.759,0.3711,0.6606,0.0479,0.4671,1.9126,8.9115,-0.6406,0.9327,0.8981,-0.0947,-5.4333,6.7125,0.999624,0,1698371510,2
-0.3945,-0.1711,-0.0562,0.672,-1.7143,2.0215,0.7261,-0.0224,9.3539,0.6561,0.5972,0.6755,0.2421,0.4433,1.9077,8.962,-0.6739,0.784,1.1343,-0.0062,-5.5321,6.8,0.999708,0,1698371511,2
-0.3943,-0.1362,-0.0493,0.689,-1.7744,1.8788,0.4691,-0.0617,9.3271,0.602,0.5812,0.6675,0.4321,0.409,1.909,9.0019,-0.6734,0.6241,1.3331,0.0713,-5.6176,6.8916,0.999773,0,1698371511,3
-0.3937,-0.0819,-0.0422,0.7126,-1.8492,1.7059,0.2192,-0.0079,9.3861,0.5841,0.601,0.6383,0.6087,0.3703,1.8947,9.0474,-0.6389,0.494,1.4994,0.1337,-5.6766,6.9624,0.999821,0,1698371511,4
-0.3916,0.024,-0.0353,0.7466,-1.7684,1.4343,-0.0227,0.0292,9.0693,0.8204,0.6548,0.5901,0.7646,0.3208,1.8852,9.0961,-0.5831,0.3793,1.6542,0.1835,-5.7382,6.9891,0.999844,0,1698371511,5
-0.3877,0.15,-0.0292,0.7506,-1.7594,1.231,-0.2949,0.1165,8.6102,0.9371,0.7256,0.527,0.8985,0.2681,1.8888,9.1283,-0.5236,0.2834,1.811,0.2147,-5.7948,7.008,0.999757,0,1698371511,5
-0.3818,0.2755,-0.0228,0.7454,-1.8461,1.126,-0.5617,0.2837,8.7275,0.7877,0.7959,0.4423,1.0025,0.2318,1.8889,9.1421,-0.4774,0.2182,1.9686,0.2234,-5.8386,7.0387,0.999501,0,1698371511,6
-0.3742,0.4127,-0.0161,0.7628,-1.7958,1.0257,-0.7911,0.3708,8.7529,0.8018,0.8599,0.3364,1.0773,0.2094,1.8874,9.1715,-0.4517,0.1583,2.1235,0.2225,-5.8822,7.0646,0.998944,0,1698371511,7
-0.3656,0.5451,-0.0092,0.7911,-1.6477,0.9605,-0.9557,0.4693,8.6167,0.8903,0.9155,0.226,1.1311,0.1841,1.8825,9.2187,-0.4266,0.0776,2.2778,0.2204,-5.9206,7.0875,0.997793,0,1698371511,8
-0.3565,0.6461,-0.0022,0.787,-1.4585,0.8792,-1.0451,0.4821,8.6551,0.9847,0.9656,0.1181,1.1721,0.1753,1.883,9.2462,-0.391,-0.0609,2.4318,0.2171,-5.9459,7.0967,0.984423,0,1698371511,9
-0.3467,0.7101,0.0056,0.7583,-1.2383,0.8408,-1.066,0.3809,8.7859,0.9642,1.0147,0.0207,1.2141,0.1974,1.9122,9.2708,-0.3701,-0.252,2.5752,0.2331,-5.9671,7.1287,0.919449,0,1698371511,9
-0.3374,0.777,0.0133,0.7333,-1.1021,0.8715,-1.049,0.2929,9.0941,0.8409,1.0631,-0.0558,1.2621,0.2378,1.9656,9.3177,-0.382,-0.4439,2.7037,0.2644,-5.9793,7.2147,0.823325,0,1698371511,10
-0.3289,0.8245,0.0205,0.7022,-0.9419,0.9012,-0.9949,0.2344,9.3217,0.7988,1.1015,-0.1119,1.3113,0.2603,2.0355,9.3809,-0.4185,-0.5571,2.8222,0.32,-5.9848,7.3292,0.741824,0,1698371511,11
-0.3215,0.8049,0.0266,0.6476,-0.7313,0.9431,-0.9129,0.2524,9.3905,0.8775,1.1339,-0.1486,1.364,0.2554,2.1234,9.4677,-0.4955,-0.5658,2.9305,0.39,-6.0062,7.448,0.694851,0,1698371511,12
-0.315,0.7581,0.0314,0.5994,-0.6214,1.0114,-0.8423,0.3511,9.5373,1.0151,1.1778,-0.1592,1.4016,0.2764,2.2139,9.5714,-0.5987,-0.5112,3.0231,0.4585,-6.0466,7.5571,0.6875,0,1698371511,13
-0.3099,0.6751,0.0355,0.5622,-0.456,1.0807,-0.7466,0.3935,9.5986,1.2153,1.2392,-0.1368,1.4103,0.312,2.294,9.684,-0.6635,-0.4501,3.0729,0.5205,-6.0937,7.6678,0.711334,0,1698371511,13
-0.3068,0.547,0.0395,0.5003,-0.2713,1.3825,-0.6526,0.4048,9.6125,1.3366,1.3047,-0.1057,1.3957,0.3327,2.3614,9.8129,-0.6815,-0.3719,3.0817,0.5507,-6.164,7.7722,0.76292,0,1698371511,14
-0.3062,0.4049,0.0419,0.401,-0.1056,1.6322,-0.6018,0.4649,9.6603,1.334,1.3565,-0.0713,1.3589,0.3575,2.4147,9.9478,-0.629,-0.2745,3.0502,0.5521,-6.252,7.8282,0.815709,0,1698371511,15
-0.307,0.3116,0.0422,0.3123,-0.0085,1.6541,-0.5632,0.468,9.6647,1.2997,1.3814,-0.0251,1.3064,0.3985,2.4479,10.0558,-0.4893,-0.164,2.978,0.5354,-6.335,7.8353,0.856854,0,1698371511,16
-0.3072,0.2508,0.0423,0.2554,-0.0004,1.7605,-0.529,0.5001,9.7171,1.2027,1.3683,0.0049,1.2554,0.4394,2.459,10.1423,-0.2761,-0.0628,2.864,0.4902,-6.3998,7.8112,0.888814,0,1698371511,16
-0.3074,0.1768,0.0423,0.2037,0.0239,1.9079,-0.4776,0.5715,9.7086,1.0501,1.3267,0.0239,1.2183,0.4627,2.4571,10.2021,0.0114,-0.0395,2.686,0.4139,-6.436,7.7684,0.913639,0,1698371511,17
-0.3083,0.1174,0.0423,0.1584,0.3298,2.0097,-0.4028,0.6013,9.5462,0.8421,1.2628,0.0183,1.1998,0.4732,2.4611,10.2231,0.3336,-0.1399,2.4318,0.3046,-6.4614,7.7247,0.932921,0,1698371511,18
-0.3096,0.0765,0.0426,0.1258,0.7132,2.162,-0.3192,0.6504,9.3671,0.6121,1.1969,-0.01,1.2135,0.483,2.4665,10.2584,0.6018,-0.3449,2.1492,0.1532,-6.4795,7.7031,0.947898,0,1698371511,19
-0.3103,0.0637,0.0434,0.1243,0.7707,2.4891,-0.232,0.8174,9.4044,0.396,1.1526,-0.0635,1.2744,0.4743,2.474,10.3192,0.7436,-0.5109,1.9058,-0.0384,-6.4989,7.7413,0.95953,0,1698371511,20
-0.31,0.0619,0.0447,0.1404,0.8205,2.7951,-0.1328,1.0021,9.5948,0.2833,1.1608,-0.1476,1.3865,0.4443,2.5316,10.398,0.7693,-0.5598,1.7448,-0.269,-6.513,7.8683,0.968566,0,1698371511,20
-0.3098,0.0675,0.0458,0.1472,0.9989,3.0039,-0.0259,1.0761,9.7914,0.3015,1.2303,-0.2496,1.5238,0.4317,2.659,10.5348,0.722,-0.6506,1.6863,-0.5225,-6.5316,8.0584,0.975584,0,1698371511,21
-0.3085,0.1234,0.0464,0.1306,1.313,3.0288,0.0776,0.8775,10.3962,0.3916,1.3251,-0.3468,1.674,0.4404,2.8153,10.7432,0.6316,-0.9622,1.7005,-0.7648,-6.6316,8.2945,0.981036,0,1698371511,22
-0.3043,0.2605,0.0463,0.0998,1.6286,2.8769,0.1409,0.5036,10.6482,0.8483,1.4277,-0.3736,1.8571,0.4409,3.0122,11.0007,0.506,-1.4361,1.7959,-0.9447,-6.7724,8.5712,0.98527,0,1698371511,23
-0.2964,0.4549,0.0459,0.0762,1.5856,2.7606,0.1432,0.0143,10.7959,1.3207,1.51,-0.3374,2.0777,0.4123,3.2698,11.2825,0.3539,-1.8655,1.9995,-1.0259,-6.8763,8.8633,0.988559,0,1698371511,23
-0.2857,0.6255,0.045,0.0171,1.3878,2.6217,0.1987,-0.6445,11.3096,1.5405,1.5296,-0.2829,2.3325,0.3547,3.5293,11.5664,0.1854,-2.1906,2.2957,-1.0449,-6.9865,9.1423,0.991113,0,1698371511,24
-0.2745,0.7252,0.0421,-0.1116,1.656,2.4635,0.3108,-1.4342,11.7575,1.8658,1.4638,-0.2396,2.6268,0.2696,3.7525,11.8272,0.0231,-2.5121,2.634,-1.0639,-7.1066,9.3858,0.993097,0,1698371511,25
-0.2646,0.7721,0.0372,-0.2485,2.1166,2.2162,0.4644,-2.1906,12.0501,2.166,1.3054,-0.2137,2.9499,0.168,3.9633,12.0563,-0.1354,-2.7933,2.9539,-1.0661,-7.1573,9.5829,0.994638,0,1698371511,26
-0.2573,0.7284,0.0297,-0.3881,2.3277,1.7975,0.639,-2.5832,12.0975,2.3941,1.0699,-0.174,3.2785,0.0888,4.1454,12.2168,-0.2815,-2.9547,3.2066,-1.0144,-7.1326,9.7109,0.995836,0,1698371511,27
-0.2532,0.6119,0.019,-0.5558,2.7428,0.8138,0.9138,-2.7118,11.9364,2.8343,0.3399,0.0792,3.8929,0.0615,4.4428,12.0951,-0.314,-3.0199,3.6033,-0.7587,-6.8579,9.6307,0.996765,0,1698371511,27
-0.2515,0.5007,0.0018,-0.7968,2.7428,0.8138,0.9138,-2.7118,11.9364,2.8343,0.3399,0.0792,3.8929,0.0615,4.4428,12.0951,-0.314,-3.0199,3.6033,-0.7587,-6.8579,9.6307,0.997488,0,1698371511,28
-0.2494,0.4368,-0.0199,-1.1077,2.6158,0.5393,1.0076,-1.7682,10.3623,3.7351,-0.8057,0.7603,4.479,0.02,4.4552,11.2102,0.09,-2.8519,3.8248,-0.5299,-6.159,9.0081,0.998049,0,1698371511,29
-0.2435,0.5109,-0.0441,-1.3546,2.1965,0.1524,0.8019,-1.444,9.8548,4.1378,-1.3684,1.1033,4.7337,-0.0083,4.3703,10.6563,0.2983,-2.534,3.8736,-0.4886,-5.7392,8.6241,0.998484,0,1698371511,30
-0.2331,0.6972,-0.0709,-1.5621,1.6314,0.1262,0.5084,-1.0133,10.1734,3.8474,-1.8353,1.3014,4.952,-0.0751,4.2531,10.1014,0.4124,-2.0553,3.8929,-0.5075,-5.3279,8.2741,0.998823,0,1698371511,30
-0.2208,0.8337,-0.0966,-1.7907,1.3714,0.2176,0.1951,-0.6425,9.8949,3.5307,-2.1161,1.4043,5.1003,-0.1645,4.1119,9.6026,0.421,-1.5361,3.8447,-0.6112,-4.9501,7.982,0.999085,0,1698371511,31
-0.2084,0.8939,-0.1219,-1.9721,1.0493,0.309,-0.0575,-0.3504,9.782,3.3777,-2.1885,1.5182,5.1584,-0.2488,3.9818,9.2104,0.3534,-1.1387,3.7298,-0.7714,-4.6658,7.7584,0.999074,0,1698371511,32
-0.1971,0.9484,-0.1463,-2.0617,0.5255,0.5359,-0.3143,-0.3096,9.5513,3.2466,-1.7235,1.7175,4.9852,-0.4703,3.7937,8.7319,0.126,-0.8467,3.4043,-1.1259,-4.4504,7.5169,0.994464,0,1698371511,33
-0.187,0.9587,-0.1733,-2.1276,0.1817,0.6696,-0.3987,-0.5235,9.884,2.9926,-1.3237,1.7862,4.7835,-0.6427,3.7635,8.642,0.04,-0.9067,3.2548,-1.2597,-4.4562,7.5056,0.966935,0,1698371511,34
-0.1777,0.9468,-0.2006,-2.2232,-0.1636,0.7913,-0.5281,-0.842,10.4415,2.6201,-0.9117,1.7782,4.4973,-0.8753,3.7618,8.6299,-0.0192,-1.0427,3.1352,-1.3248,-4.5125,7.5516,0.938298,0,1698371511,34
-0.1698,0.9278,-0.2234,-2.2449,-0.3535,0.8177,-0.6389,-1.2345,10.5361,2.409,-0.5091,1.668,4.1003,-1.0856,3.7751,8.6986,-0.0711,-1.2293,3.0296,-1.3206,-4.6194,7.6392,0.938568,0,1698371511,35
-0.1619,0.8878,-0.2451,-2.1843,-0.3672,0.6907,-0.7207,-1.6829,10.1673,2.4072,-0.1239,1.4777,3.6053,-1.2347,3.7969,8.8078,-0.1268,-1.4254,2.9262,-1.2423,-4.7516,7.7556,0.950397,0,1698371511,36
-0.1533,0.8656,-0.2663,-2.1263,-0.3821,0.5819,-0.7638,-2.0999,9.7068,2.412,0.1949,1.2744,3.0572,-1.3378,3.8267,8.9273,-0.1632,-1.5718,2.8212,-1.0916,-4.8738,7.8882,0.959628,0,1698371511,37
-0.1442,0.8738,-0.2856,-2.092,-0.4269,0.4497,-0.8109,-2.3955,9.4405,2.3174,0.4016,1.0892,2.4994,-1.3946,3.8705,9.0528,-0.1574,-1.6462,2.6988,-0.9032,-4.9625,8.0212,0.953487,0,1698371511,38
-0.1351,0.8806,-0.3024,-2.004,-0.4217,0.2702,-0.8773,-2.5598,9.4481,2.1025,0.4829,0.9079,1.9656,-1.3981,3.9504,9.1647,-0.1307,-1.6248,2.5534,-0.6919,-5.0157,8.1205,0.8884,0,1698371511,38
-0.1261,0.9011,-0.3175,-1.8453,-0.3281,0.0244,-0.9689,-2.6196,9.3492,1.9543,0.4531,0.7287,1.47,-1.3372,4.0087,9.2385,-0.0989,-1.4804,2.385,-0.4802,-5.0302,8.1781,0.720531,0,1698371511,39
-0.1164,0.9461,-0.331,-1.6978,-0.2051,-0.2561,-1.0571,-2.5292,9.062,1.8927,0.349,0.5589,1.0263,-1.2201,4.019,9.259,-0.0589,-1.2429,2.1904,-0.3102,-4.998,8.1905,0.509463,0,1698371511,40
-0.106,0.9819,-0.3428,-1.5767,-0.1037,-0.5234,-1.1461,-2.3654,8.9507,1.8314,0.2094,0.4176,0.6509,-1.0642,4.0094,9.2262,-0.015,-0.9988,1.9668,-0.1813,-4.9083,8.1659,0.3524,0,1698371511,41
-0.0966,0.9833,-0.3528,-1.456,0.0254,-0.8068,-1.2493,-2.1583,8.9267,1.8103,0.0694,0.3334,0.3551,-0.8801,3.9736,9.1494,0.0242,-0.7717,1.7215,-0.1157,-4.7822,8.1032,0.24938,0,1698371511,41
-0.0876,0.9738,-0.3622,-1.3453,0.0583,-1.0542,-1.349,-1.9108,9.033,1.7546,-0.0572,0.3089,0.1424,-0.7087,3.9284,9.0422,0.0342,-0.4905,1.5037,-0.1153,-4.6385,7.9816,0.169927,0,1698371511,42
-0.0791,0.9877,-0.3711,-1.2562,-0.0013,-1.2515,-1.4274,-1.776,9.2716,1.6857,-0.1641,0.3248,0.0053,-0.566,3.8799,8.9213,0.0002,-0.1766,1.3439,-0.1385,-4.4914,7.8318,0.108466,0,1698371511,43
-0.071,0.9851,-0.38,-1.1878,0.0129,-1.4516,-1.4916,-1.798,9.4518,1.6287,-0.2385,0.367,-0.085,-0.4313,3.8097,8.8097,-0.0688,0.0706,1.2198,-0.1816,-4.3675,7.6898,-0.001039,0,1698371511,44
-0.0628,0.9447,-0.3897,-1.1701,0.0324,-1.8542,-1.5407,-1.8141,9.4849,1.5411,-0.2632,0.4237,-0.1645,-0.3136,3.7172,8.7132,-0.1531,0.2626,1.1251,-0.2242,-4.2841,7.5642,-0.177492,0,1698371511,45
-0.0549,0.8782,-0.3994,-1.1188,-0.0129,-2.1567,-1.5677,-1.7437,9.6023,1.4362,-0.2363,0.4796,-0.2587,-0.2348,3.6314,8.605,-0.2254,0.4365,1.0541,-0.2519,-4.2348,7.4418,-0.352226,0,1698371511,45
-0.0479,0.8144,-0.4087,-1.0265,-0.1469,-2.1308,-1.5708,-1.6649,9.4732,1.4258,-0.1694,0.5281,-0.3735,-0.189,3.5618,8.5146,-0.2807,0.5894,0.9836,-0.2526,-4.2126,7.3511,-0.496427,0,1698371511,46
-0.0414,0.7693,-0.4177,-0.9803,-0.511,-2.0255,-1.5647,-1.5078,9.4288,1.3937,-0.0654,0.5667,-0.5148,-0.1527,3.515,8.4708,-0.3279,0.7176,0.9007,-0.2627,-4.2124,7.3223,-0.608846,0,1698371511,47
-0.0358,0.7221,-0.4263,-0.9661,-0.896,-1.9259,-1.5335,-1.3208,9.7648,1.2685,0.0596,0.5847,-0.6807,-0.1154,3.4969,8.4622,-0.3697,0.8265,0.8006,-0.2776,-4.216,7.3266,-0.696179,0,1698371511,48
-0.0311,0.6549,-0.4343,-0.9264,-1.1703,-1.8297,-1.4462,-1.2002,9.864,1.1892,0.1874,0.5834,-0.8496,-0.0733,3.4913,8.4889,-0.4064,0.9187,0.6785,-0.2485,-4.2287,7.353,-0.764013,0,1698371511,48
-0.0272,0.5888,-0.4415,-0.8626,-1.4141,-1.8087,-1.3333,-1.1837,9.8561,1.2067,0.3012,0.5755,-1.003,-0.0249,3.5003,8.5458,-0.4358,0.9955,0.5384,-0.2125,-4.2701,7.3924,-0.816702,0,1698371511,49
-0.0237,0.5358,-0.4472,-0.7728,-1.583,-1.829,-1.1953,-1.2322,9.6969,1.2192,0.3887,0.5754,-1.1306,0.0272,3.5207,8.6196,-0.4509,1.0603,0.3888,-0.1894,-4.3221,7.4423,-0.857627,0,1698371511,50
-0.0201,0.4895,-0.4516,-0.6562,-1.7048,-1.8192,-1.0446,-1.2511,9.4521,1.1809,0.4396,0.594,-1.2272,0.0877,3.5542,8.7021,-0.4558,1.1063,0.2282,-0.1843,-4.3734,7.5062,-0.889415,0,1698371511,51
-0.0167,0.4492,-0.4549,-0.5466,-1.7773,-1.8611,-0.8833,-1.4031,9.2822,1.2307,0.4434,0.6434,-1.2869,0.1429,3.5938,8.7955,-0.4546,1.1446,0.0643,-0.1912,-4.4212,7.5759,-0.914105,0,1698371511,52
-0.0136,0.4189,-0.4569,-0.4386,-1.9503,-1.8586,-0.7315,-1.468,9.3192,1.1344,0.3952,0.7278,-1.3137,0.1639,3.6321,8.8868,-0.4468,1.1795,-0.0911,-0.1998,-4.4504,7.631,-0.933283,0,1698371511,52
-0.01,0.4098,-0.4573,-0.331,-2.1588,-1.7817,-0.5924,-1.3661,9.3988,0.8704,0.3032,0.8241,-1.3268,0.1605,3.6746,8.9387,-0.439,1.204,-0.2357,-0.2164,-4.4704,7.6742,-0.948177,0,1698371511,53
-0.0054,0.4533,-0.4571,-0.2475,-2.2808,-1.6956,-0.4494,-1.3067,9.3125,0.7191,0.1977,0.9048,-1.3429,0.1476,3.7042,8.9361,-0.4415,1.2308,-0.3642,-0.2405,-4.4829,7.7186,-0.959737,0,1698371511,54
-0.0003,0.511,-0.4568,-0.1836,-2.2008,-1.6815,-0.3135,-1.2737,9.1746,0.7424,0.1055,0.9521,-1.3632,0.1123,3.7194,8.9086,-0.4528,1.2796,-0.4802,-0.2729,-4.486,7.7617,-0.968702,0,1698371511,55
0.0049,0.5316,-0.4557,-0.0993,-2.0423,-1.651,-0.1663,-1.116,8.7802,0.9431,0.0441,0.954,-1.3968,0.0672,3.7291,8.888,-0.4803,1.3176,-0.589,-0.3127,-4.4748,7.7877,-0.975637,0,1698371511,55
0.0105,0.5389,-0.453,0.0001,-2.1357,-1.7133,0.0077,-0.9494,8.2558,1.2833,0.0143,0.9085,-1.4569,0.0372,3.743,8.8651,-0.5281,1.2951,-0.7085,-0.3482,-4.4476,7.7985,-0.980996,0,1698371511,56
0.017,0.5669,-0.4479,0.1303,-2.2713,-1.7822,0.2375,-0.9943,7.8992,1.4862,0.0048,0.8366,-1.5352,0.0209,3.7702,8.8249,-0.5823,1.2376,-0.8354,-0.3565,-4.4169,7.8138,-0.985171,0,1698371511,57
0.0238,0.6094,-0.4406,0.2717,-2.248,-1.6551,0.525,-1.0674,7.6869,1.3989,0.006,0.756,-1.6156,0.0122,3.8022,8.7722,-0.6337,1.2133,-0.951,-0.3576,-4.3837,7.8145,-0.988438,0,1698371511,58
0.0305,0.665,-0.4321,0.3822,-2.0475,-1.5682,0.7799,-1.0338,7.6921,1.2303,0.0103,0.6559,-1.6815,-0.0306,3.8303,8.7247,-0.6814,1.2371,-1.057,-0.381,-4.3442,7.7991,-0.990986,0,1698371511,59
0.0382,0.7395,-0.4217,0.5563,-1.683,-1.5715,0.9778,-0.9869,7.6904,1.1119,0.0179,0.5091,-1.7275,-0.1144,3.8607,8.7027,-0.7286,1.2812,-1.1615,-0.4247,-4.3018,7.7827,-0.992967,0,1698371511,59
0.0469,0.7776,-0.4093,0.7766,-1.2976,-1.5417,1.1393,-0.8999,7.622,1.1831,0.04,0.2946,-1.771,-0.1915,3.8971,8.7129,-0.784,1.312,-1.2767,-0.4657,-4.2638,7.7613,-0.994509,0,1698371511,60
0.0566,0.808,-0.3962,0.9297,-0.8065,-1.5892,1.2681,-0.9574,7.7616,1.3671,0.0903,0.012,-1.8371,-0.2329,3.923,8.7633,-0.8595,1.3078,-1.4063,-0.5111,-4.2696,7.744,-0.995694,0,1698371511,61
0.0665,0.8201,-0.3834,0.9947,-0.3253,-1.6262,1.3477,-1.0318,7.9324,1.4914,0.1661,-0.3088,-1.9379,-0.2223,3.9428,8.8586,-0.9487,1.273,-1.5461,-0.5544,-4.3353,7.7587,-0.996624,0,1698371511,62
0.0755,0.7863,-0.3719,1.0179,-0.0411,-1.5509,1.3609,-0.9041,8.43,1.5566,0.2557,-0.6254,-2.0673,-0.1788,3.9614,8.9941,-1.0411,1.2366,-1.6675,-0.5873,-4.4462,7.814,-0.997372,0,1698371511,63
0.0833,0.756,-0.3626,0.9898,0.2095,-1.5086,1.2988,-0.8906,9.3301,1.4774,0.3465,-0.9071,-2.2206,-0.1159,3.9735,9.1816,-1.1222,1.2143,-1.7516,-0.6518,-4.5991,7.8839,-0.997958,0,1698371511,63
0.0894,0.7069,-0.3559,0.8811,0.4425,-1.4826,1.167,-0.9096,9.9882,1.2739,0.4086,-1.1241,-2.3892,-0.0278,3.9769,9.3799,-1.1826,1.1723,-1.7981,-0.7257,-4.7866,7.974,-0.998413,0,1698371511,64
0.0941,0.6456,-0.3527,0.7162,0.6286,-1.4709,0.9854,-0.7399,10.2137,1.1816,0.4218,-1.2612,-2.5559,0.069,3.9657,9.5412,-1.227,1.0995,-1.8104,-0.7762,-4.9892,8.0971,-0.998767,0,1698371511,65
0.0975,0.5612,-0.3528,0.5202,0.8107,-1.4866,0.5963,-0.6399,10.2328,1.1508,0.3946,-1.3021,-2.6922,0.1581,3.9621,9.694,-1.2623,1.0226,-1.797,-0.8108,-5.1756,8.2222,-0.999042,0,1698371511,66
0.0993,0.4543,-0.3553,0.3295,1.0032,-1.5567,0.2882,-0.8397,10.1958,1.0021,0.3173,-1.2529,-2.7656,0.234,3.9713,9.8298,-1.2864,0.9595,-1.7652,-0.8233,-5.3309,8.3279,-0.999256,0,1698371511,66
0.1004,0.3729,-0.3598,0.1626,1.0871,-1.6341,0.2056,-1.0657,10.0446,0.7687,0.2043,-1.172,-2.769,0.2745,3.9756,9.9409,-1.2931,0.9096,-1.7295,-0.8212,-5.4558,8.4218,-0.999422,0,1698371511,67
0.1021,0.3211,-0.3648,0.0465,1.0372,-1.6951,0.0597,-1.2391,9.9734,0.5099,0.1081,-1.0964,-2.7069,0.2624,3.9951,10.0675,-1.3009,0.8546,-1.7102,-0.8199,-5.5519,8.5278,-0.999551,0,1698371511,68
0.1045,0.3008,-0.3686,-0.0065,0.9329,-1.6641,-0.1329,-1.3952,10.1287,0.3474,0.0606,-1.0437,-2.5956,0.199,4.0387,10.2551,-1.3436,0.7881,-1.7268,-0.8287,-5.6355,8.6522,-0.999651,0,1698371511,69
0.1073,0.3075,-0.37,-0.0094,0.7786,-1.6477,-0.3515,-1.5268,10.5904,0.2853,0.0561,-1.053,-2.4725,0.1008,4.0944,10.4912,-1.4466,0.6716,-1.7738,-0.846,-5.7423,8.7827,-0.999728,0,1698371511,70
0.1096,0.3016,-0.3697,0.0015,0.7806,-1.767,-0.575,-1.6269,11.2026,0.1868,0.0518,-1.1114,-2.3922,-0.0176,4.1361,10.7278,-1.6025,0.5036,-1.835,-0.8381,-5.9197,8.9167,-0.999789,0,1698371511,70
0.1108,0.2569,-0.3687,0.0478,1.0037,-1.9091,-0.7946,-1.6675,11.7912,0.1521,0.0228,-1.1576,-2.3775,-0.1297,4.1546,10.9588,-1.7671,0.3569,-1.891,-0.8089,-6.1854,9.0274,-0.999836,0,1698371511,71
0.1108,0.1822,-0.3654,0.1514,0.8412,-1.8849,-1.0036,-1.3441,11.8069,0.2186,-0.0448,-1.2454,-2.4105,-0.2373,4.1649,11.1778,-1.8914,0.2992,-1.9226,-0.7916,-6.4862,9.1257,-0.999873,0,1698371511,72
0.1106,0.1257,-0.3587,0.2899,0.4449,-1.8081,-1.2281,-0.4958,12.0406,0.3141,-0.1655,-1.4245,-2.4795,-0.3287,4.1513,11.3739,-1.9446,0.3243,-1.9523,-0.8076,-6.7786,9.2465,-0.999901,0,1698371511,73
0.1102,0.063,-0.3505,0.453,0.4012,-1.9112,-1.4595,-0.0572,12.8906,0.6839,-0.3036,-1.6274,-2.5536,-0.3977,4.1416,11.5596,-1.9177,0.3582,-2.012,-0.8371,-7.041,9.4004,-0.999923,0,1698371511,73
0.1088,-0.0158,-0.3426,0.5534,0.4994,-1.7791,-1.6001,-0.0463,13.5449,0.9259,-0.433,-1.7749,-2.6103,-0.4501,4.1406,11.7292,-1.815,0.3437,-2.1137,-0.8386,-7.2609,9.5825,-0.99994,0,1698371511,74
0.1055,-0.1197,-0.3364,0.5567,0.7938,-1.5572,-1.6914,-0.041,13.9468,1.0941,-0.5506,-1.8425,-2.662,-0.4738,4.1194,11.8403,-1.6253,0.2447,-2.2558,-0.7946,-7.4672,9.7338,-0.999953,0,1698371511,75
0.0992,-0.2923,-0.3322,0.507,1.611,-1.5099,-1.758,-0.3105,13.1091,2.0287,-0.8076,-1.7668,-2.7054,-0.5182,3.9145,11.757,-0.833,0.1756,-2.5791,-0.5904,-7.8136,9.7659,-0.998873,0,1698371511,76
0.0846,-0.5078,-0.3284,0.4575,1.611,-1.5099,-1.758,-0.3105,13.1091,2.0287,-0.8076,-1.7668,-2.7054,-0.5182,3.9145,11.757,-0.833,0.1756,-2.5791,-0.5904,-7.8136,9.7659,-0.995617,0,1698371511,77
0.065,-0.7717,-0.3237,0.4646,1.7814,-1.5198,-1.6129,-0.7493,12.3839,2.3368,-1.2319,-1.3056,-2.5654,-0.5943,3.5396,11.1085,0.5299,0.4014,-2.9609,-0.3527,-7.7888,9.2454,-0.858857,0,1698371511,77
0.0442,-1.0436,-0.3173,0.5392,1.7674,-1.5961,-1.4457,-0.965,11.8228,2.2927,-1.5205,-1.023,-2.4396,-0.6912,3.2914,10.6107,1.3414,0.5758,-3.2189,-0.2531,-7.5648,8.8182,-0.532063,0,1698371512,78
0.0197,-1.3305,-0.3081,0.6538,1.6978,-1.744,-1.2042,-1.136,10.9125,2.2712,-1.8111,-0.7872,-2.2985,-0.806,3.0211,10.0789,2.143,0.7172,-3.5557,-0.1886,-7.2302,8.3207,-0.190628,0,1698371512,79
-0.0063,-1.6296,-0.296,0.7634,1.5482,-1.887,-0.9203,-1.1916,10.3046,2.239,-2.0394,-0.6416,-2.1769,-0.8904,2.7703,9.5557,2.844,0.8671,-3.9281,-0.19,-6.8367,7.8092,0.074027,0,1698371512,80
-0.0335,-1.8992,-0.2822,0.8828,1.4244,-2.0236,-0.6708,-1.2239,10.1345,2.2408,-2.1272,-0.6163,-2.1286,-0.9319,2.5239,9.1108,3.4012,1.1327,-4.2684,-0.2596,-6.4594,7.3512,0.279883,0,1698371512,80
-0.061,-2.0568,-0.2689,0.9643,1.3273,-2.2022,-0.4881,-1.3692,9.8625,2.4279,-2.0216,-0.652,-2.1873,-0.9224,2.2914,8.7773,3.7796,1.4745,-4.5302,-0.3615,-6.1417,6.9677,0.44058,0,1698371512,81
-0.0865,-2.1518,-0.2567,0.962,1.0628,-2.3673,-0.3999,-1.4577,9.7686,2.6871,-1.7325,-0.6832,-2.3462,-0.888,2.122,8.5733,3.9209,1.7757,-4.6824,-0.4828,-5.9105,6.6637,0.565174,0,1698371512,82
-0.1116,-2.2476,-0.2453,0.9247,0.7133,-2.4495,-0.4362,-1.373,9.9536,2.7801,-1.3375,-0.7159,-2.5728,-0.8664,2.0535,8.4937,3.8108,1.9901,-4.7163,-0.6204,-5.7699,6.466,0.660881,0,1698371512,83
-0.1363,-2.2498,-0.2355,0.9189,0.3089,-2.4367,-0.5113,-1.0331,10.2443,2.6958,-0.8875,-0.812,-2.8451,-0.8855,2.0612,8.5383,3.5045,2.1234,-4.6455,-0.7727,-5.7184,6.3919,0.73406,0,1698371512,84
-0.1594,-2.2198,-0.2266,0.9249,-0.0257,-2.4199,-0.5755,-0.6148,10.4461,2.679,-0.371,-1.006,-3.1562,-0.9136,2.0979,8.7247,3.0604,2.1894,-4.4822,-0.9227,-5.7415,6.4364,0.787867,0,1698371512,84
-0.1832,-2.211,-0.217,0.9123,-0.2251,-2.4257,-0.5786,-0.2434,10.4541,2.7463,0.1921,-1.2624,-3.4985,-0.9232,2.1596,8.9988,2.5067,2.193,-4.2353,-1.0658,-5.8183,6.581,0.81957,0,1698371512,85
-0.2082,-2.2572,-0.2073,0.9297,-0.3493,-2.3909,-0.5008,0.11,10.3297,2.882,0.7139,-1.4921,-3.8368,-0.8932,2.266,9.3101,1.8849,2.1114,-3.9318,-1.1908,-5.9421,6.8097,0.83641,0,1698371512,86
-0.2318,-2.324,-0.1981,0.9278,-0.4806,-2.2071,-0.3425,0.4495,10.0741,3.0323,1.091,-1.6314,-4.1345,-0.8124,2.4081,9.6241,1.2749,1.8708,-3.5989,-1.2497,-6.0767,7.0784,0.860917,0,1698371512,87
-0.2525,-2.2951,-0.1892,0.8902,-0.5997,-1.9067,-0.0891,0.73,9.9313,3.0652,1.2758,-1.6527,-4.3717,-0.6882,2.5571,9.8926,0.7909,1.5134,-3.2808,-1.2133,-6.1892,7.3318,0.891133,0,1698371512,88
-0.2714,-2.2099,-0.1805,0.8778,-0.5746,-1.5643,0.2433,0.877,9.6633,3.0343,1.2624,-1.5499,-4.5244,-0.5129,2.6879,10.0824,0.501,1.1276,-3.014,-1.1084,-6.2804,7.5203,0.911688,0,1698371512,88
-0.2891,-2.0669,-0.1719,0.8749,-0.5108,-1.1457,0.6659,0.9555,9.2886,2.9488,1.0919,-1.3098,-4.562,-0.2912,2.7496,10.1809,0.3969,0.6908,-2.823,-0.9716,-6.3371,7.6208,0.912689,0,1698371512,89
-0.3048,-1.8861,-0.1632,0.8662,-0.4528,-0.6767,1.1287,0.9188,9.0449,2.8872,0.8443,-0.9351,-4.4558,-0.0677,2.7443,10.1729,0.4515,0.2245,-2.7198,-0.8033,-6.3434,7.6386,0.916433,0,1698371512,90
-0.3189,-1.7708,-0.1542,0.8878,-0.4298,-0.1529,1.5863,0.8484,8.9157,2.7287,0.5771,-0.4982,-4.2079,0.1169,2.6916,10.073,0.6047,-0.1632,-2.6968,-0.6226,-6.2818,7.5694,0.935042,0,1698371512,91
-0.3312,-1.6432,-0.145,0.8866,-0.3489,0.3237,2.0201,0.7164,8.8721,2.5188,0.309,-0.0729,-3.8501,0.2415,2.6039,9.8943,0.7902,-0.3681,-2.747,-0.4553,-6.1615,7.4325,0.949545,0,1698371512,91
-0.342,-1.4895,-0.1361,0.8399,-0.2435,0.7238,2.3988,0.53,8.8058,2.3511,0.0675,0.2857,-3.435,0.3097,2.4997,9.6633,0.947,-0.396,-2.8355,-0.332,-5.998,7.2775,0.96081,0,1698371512,92
-0.352,-1.3538,-0.127,0.8362,-0.1769,1.0643,2.7074,0.3494,8.756,2.175,-0.1081,0.5283,-3.0188,0.3224,2.4065,9.4229,1.0271,-0.3001,-2.9179,-0.2595,-5.8261,7.1184,0.96956,0,1698371512,93
-0.3611,-1.2483,-0.1182,0.866,-0.1372,1.3357,2.9275,0.2243,8.764,1.9959,-0.2019,0.6452,-2.652,0.3033,2.3437,9.1897,1.0432,-0.102,-2.9852,-0.2269,-5.6811,6.9571,0.976356,0,1698371512,94
-0.3696,-1.1634,-0.1096,0.8509,-0.1011,1.5626,3.0473,0.139,8.8341,1.7903,-0.2236,0.6355,-2.3578,0.2888,2.2965,8.9749,1.02,0.1746,-3.0018,-0.2388,-5.5364,6.8006,0.981635,0,1698371512,95
-0.3773,-1.0752,-0.1016,0.7893,-0.1013,1.7551,3.0663,0.1574,8.9298,1.6455,-0.186,0.5248,-2.1318,0.2871,2.2478,8.7933,0.9559,0.461,-2.932,-0.2975,-5.4029,6.6549,0.985735,0,1698371512,95
-0.3847,-0.9791,-0.094,0.7685,-0.1202,1.8935,3.035,0.1864,8.9359,1.5774,-0.0988,0.3596,-1.9614,0.3168,2.1948,8.6606,0.8278,0.7073,-2.7499,-0.3863,-5.3051,6.5445,0.98892,0,1698371512,96
-0.3918,-0.8813,-0.0866,0.7555,-0.2401,2.0017,2.7258,0.2766,8.9502,1.4161,0.1866,-0.0015,-1.6929,0.4472,2.1501,8.5022,0.3844,1.1163,-2.0372,-0.5761,-5.1725,6.3872,0.991394,0,1698371512,97
-0.3974,-0.7944,-0.0795,0.735,-0.3354,2.0356,2.4833,0.2584,9.0501,1.2646,0.3526,-0.1131,-1.5463,0.527,2.1317,8.4796,0.1205,1.1907,-1.5981,-0.6119,-5.1483,6.3796,0.993316,0,1698371512,98
-0.4016,-0.6948,-0.0725,0.7093,-0.4707,2.0586,2.1902,0.1983,9.3824,1.1359,0.5036,-0.1453,-1.3592,0.6076,2.1086,8.523,-0.1211,1.1616,-1.1727,-0.5926,-5.1752,6.4175,0.994808,0,1698371512,98
-0.4046,-0.5759,-0.066,0.653,-0.6849,2.0866,1.8764,0.2917,9.6133,0.8737,0.6022,-0.0995,-1.1312,0.6746,2.0941,8.5987,-0.3036,1.0538,-0.8117,-0.5423,-5.2421,6.4819,0.995967,0,1698371512,99
-0.4055,-0.4537,-0.0597,0.6513,-0.7934,2.0743,1.5799,0.3193,9.5515,0.6508,0.6515,0.0152,-0.8647,0.7116,2.1003,8.6805,-0.4258,0.9044,-0.5022,-0.4736,-5.3274,6.5624,0.996868,0,1698371512,0
-0.4054,-0.3499,-0.053,0.6575,-0.8469,2.0051,1.2899,0.2892,9.4873,0.5533,0.6676,0.153,-0.5698,0.7131,2.1187,8.7643,-0.4866,0.8157,-0.2286,-0.3829,-5.4293,6.6349,0.997567,0,1698371512,1
-0.4052,-0.2691,-0.046,0.6347,-0.9822,1.9284,1.0092,0.2604,9.5028,0.4113,0.6545,0.277,-0.2633,0.6904,2.114,8.8519,-0.4615,0.7732,-0.0127,-0.2835,-5.5474,6.6983,0.99811,0,1698371512,2
-0.405,-0.1985,-0.0385,0.6624,-1.1632,1.8756,0.7478,0.2036,9.4315,0.2371,0.6129,0.3776,0.043,0.6485,2.0828,8.9352,-0.3694,0.6549,0.1447,-0.2082,-5.6664,6.7471,0.998532,0,1698371512,3
-0.4037,-0.0961,-0.0304,0.6933,-1.4094,1.7391,0.5132,0.0659,9.6803,0.0444,0.5694,0.4481,0.338,0.5917,2.045,8.983,-0.2324,0.5409,0.2628,-0.1702,-5.7554,6.7569,0.99886,0,1698371512,3
-0.4002,0.0403,-0.0223,0.6995,-1.4916,1.5104,0.2943,-0.0813,9.7399,-0.1136,0.5579,0.4815,0.6123,0.5277,2.0017,9.0284,-0.085,0.4413,0.3715,-0.1742,-5.8104,6.7629,0.999114,0,1698371512,4
-0.3929,0.2028,-0.014,0.7167,-1.4565,1.3805,0.0511,-0.0643,9.1987,-0.0779,0.583,0.4734,0.8586,0.4601,1.9699,9.0741,0.044,0.2616,0.4926,-0.1986,-5.8496,6.7831,0.99931,0,1698371512,5
-0.3825,0.3792,-0.006,0.7304,-1.4992,1.3477,-0.2154,0.1706,8.8446,0.052,0.6391,0.4313,1.078,0.3903,1.9642,9.1144,0.1493,0.0505,0.643,-0.2104,-5.8827,6.7937,0.999458,1,1698371512,6
-0.3696,0.5938,0.0021,0.7695,-1.4267,1.2891,-0.4352,0.2854,8.7963,0.236,0.71,0.3602,1.2672,0.3275,1.975,9.1677,0.2089,-0.1629,0.8304,-0.226,-5.9212,6.8049,0.99957,1,1698371512,7
-0.3544,0.8089,0.0112,0.811,-0.7997,1.2382,-0.6563,0.2623,8.5736,0.3854,0.8324,0.1336,1.5597,0.2192,2.0124,9.2677,0.1847,-0.6084,1.2501,-0.2688,-5.9929,6.8851,0.999656,1,1698371512,8
-0.3382,0.9513,0.0214,0.8357,-0.4913,1.3233,-0.6763,0.3735,8.4559,0.5834,0.8788,-0.032,1.6686,0.1654,2.0512,9.3212,0.1213,-0.846,1.446,-0.2908,-6.024,6.9523,0.999721,1,1698371512,9
-0.3211,1.0693,0.032,0.8417,-0.3089,1.4627,-0.6585,0.5897,8.5598,0.8097,0.9141,-0.2169,1.7574,0.1397,2.0841,9.3999,0.0363,-1.1149,1.6408,-0.3045,-6.0711,7.0436,0.999775,1,1698371512,9
-0.3047,1.1298,0.0425,0.8383,-0.059,1.553,-0.6055,0.8322,8.8733,1.0153,0.9474,-0.3921,1.8332,0.1585,2.128,9.4955,-0.0629,-1.4064,1.8399,-0.294,-6.133,7.1443,0.999824,1,1698371512,10
-0.2908,1.0889,0.0516,0.8239,0.2817,1.5891,-0.4954,0.9078,9.2136,1.1251,0.9827,-0.5367,1.9075,0.1953,2.1843,9.6048,-0.1647,-1.7095,2.0422,-0.2433,-6.1988,7.2451,0.999863,1,1698371512,11
-0.2819,0.9601,0.0583,0.7529,0.3988,1.7305,-0.3672,0.9323,9.2881,1.1519,0.9998,-0.6302,1.9873,0.2351,2.2617,9.7279,-0.248,-2.0089,2.2453,-0.154,-6.2593,7.3412,0.999893,1,1698371512,12
-0.2783,0.7746,0.0627,0.6618,0.3527,1.848,-0.2651,0.9203,9.8182,1.1913,0.9902,-0.6407,2.074,0.2673,2.359,9.8473,-0.2753,-2.2585,2.4347,-0.0244,-6.3118,7.4325,0.999917,1,1698371512,13
-0.2782,0.5709,0.0655,0.5773,0.5043,1.808,-0.1661,0.6892,10.2944,1.218,0.9733,-0.573,2.161,0.2769,2.4345,9.9571,-0.2342,-2.4796,2.5459,0.1315,-6.3462,7.5189,0.999936,1,1698371512,14
-0.2799,0.3853,0.0671,0.5048,0.7371,1.8102,-0.0893,0.4835,10.2094,0.981,0.9533,-0.4675,2.2413,0.2674,2.493,10.0619,-0.1716,-2.4741,2.6145,0.2986,-6.3829,7.5814,0.99995,0,1698371512,15
-0.2827,0.2262,0.0688,0.4466,0.8736,1.8716,-0.0305,0.4635,10.1217,0.6195,0.908,-0.3524,2.3071,0.243,2.5469,10.1698,-0.1154,-2.2116,2.6456,0.3982,-6.4108,7.6273,0.999961,0,1698371512,15
-0.2867,0.077,0.0711,0.3962,0.8995,1.9542,0.0135,0.5471,10.1458,0.3999,0.8353,-0.2791,2.3539,0.2131,2.584,10.2865,-0.0938,-1.9506,2.5581,0.3868,-6.4183,7.6635,0.99997,0,1698371512,16
-0.2906,-0.0226,0.0735,0.3517,0.872,2.0567,0.011,0.6727,10.3765,0.2676,0.7721,-0.2887,2.392,0.1738,2.6184,10.4204,-0.1401,-1.6959,2.3929,0.2919,-6.4356,7.7267,0.999977,0,1698371512,17
-0.2933,-0.0496,0.0754,0.2999,0.9588,2.144,-0.0437,0.6906,10.4867,0.2789,0.7621,-0.3771,2.4233,0.136,2.6705,10.6151,-0.2946,-1.4572,2.2434,0.0968,-6.4723,7.8898,0.999982,0,1698371512,18
-0.2936,-0.0146,0.0764,0.2356,1.1003,2.2058,-0.1297,0.5439,10.5199,0.4398,0.8234,-0.4876,2.451,0.1247,2.7735,10.8649,-0.5364,-1.305,2.1792,-0.1365,-6.553,8.124,0.999986,0,1698371512,19
-0.2913,0.0639,0.0765,0.1852,0.9054,2.2471,-0.1951,0.0849,11.6878,0.9843,1.0274,-0.6166,2.5197,0.2459,3.1973,11.463,-1.1313,-1.1924,2.443,-0.4743,-6.874,8.7555,0.999989,0,1698371512,20
-0.2861,0.1857,0.0759,0.1369,0.8816,2.2885,-0.0692,-0.0805,11.7019,1.6743,1.0806,-0.556,2.5898,0.3401,3.45,11.7854,-1.3576,-1.5672,2.6828,-0.544,-7.1229,9.0856,0.999991,0,1698371512,21
-0.2788,0.3299,0.0732,0.0275,0.9134,2.157,0.113,-0.3405,11.7659,2.3565,1.0435,-0.3785,2.732,0.3695,3.7336,12.0663,-1.5061,-1.9111,2.9321,-0.5626,-7.3384,9.4008,0.999993,0,1698371512,21
-0.2716,0.4298,0.0659,-0.1824,1.1384,1.8716,0.3039,-0.8316,12.152,2.8941,0.8861,-0.1707,2.9422,0.3129,3.9962,12.2935,-1.612,-2.1237,3.1684,-0.5469,-7.4745,9.6975,0.999995,0,1698371512,22
-0.266,0.4323,0.0535,-0.4587,1.4691,1.6508,0.5979,-1.4499,12.1416,3.379,0.6223,0.0324,3.183,0.2374,4.2079,12.4575,-1.6756,-2.1849,3.3698,-0.4715,-7.5457,9.9249,0.999996,0,1698371512,23
-0.2633,0.3583,0.0383,-0.7006,1.7507,1.383,0.9055,-1.905,12.02,3.5825,0.2563,0.2651,3.4493,0.154,4.3953,12.5092,-1.6517,-2.1514,3.5049,-0.3438,-7.5356,10.0423,0.999997,0,1698371512,24
-0.2628,0.277,0.0201,-0.9125,1.7972,1.2492,1.1189,-1.9838,12.1612,3.4053,-0.2171,0.5669,3.7499,0.0381,4.5107,12.3684,-1.5019,-2.0113,3.5502,-0.2443,-7.3959,9.9811,0.999998,0,1698371512,25
-0.2623,0.2564,-0.0019,-1.156,1.9501,1.1418,1.2701,-2.0634,12.0226,2.9887,-0.7885,0.9164,4.0754,-0.0797,4.5559,12.0341,-1.2304,-1.7081,3.519,-0.2307,-7.1378,9.7783,0.999998,0,1698371512,26
-0.2591,0.3254,-0.0253,-1.4098,2.4268,0.8982,1.3237,-2.1273,10.7529,3.0818,-1.4241,1.2799,4.3998,-0.1667,4.5424,11.5637,-0.8662,-1.3431,3.4171,-0.3101,-6.7764,9.4839,0.999999,0,1698371512,26
-0.2516,0.4381,-0.0522,-1.6975,2.377,0.8896,1.206,-1.7478,9.7217,3.3695,-2.0686,1.5613,4.714,-0.2225,4.4795,10.9768,-0.4597,-0.9189,3.2784,-0.4828,-6.3454,9.096,0.999999,0,1698371512,27
-0.24,0.6189,-0.0814,-1.9516,1.8951,1.1369,0.9585,-1.1534,9.8878,3.2768,-2.6143,1.6854,5.0032,-0.2557,4.3794,10.3729,-0.0928,-0.4821,3.139,-0.7321,-5.8993,8.7062,0.999999,0,1698371512,28
-0.2266,0.792,-0.1087,-2.1716,1.514,1.3937,0.6658,-0.6508,10.1125,3.0979,-2.9351,1.734,5.2397,-0.2916,4.2382,9.8346,0.1845,-0.1735,3.0206,-1.0302,-5.4838,8.3494,0.999999,0,1698371512,29
-0.2128,0.9056,-0.135,-2.3612,1.0765,1.6478,0.3865,-0.2566,10.2295,2.8309,-2.9994,1.7939,5.4064,-0.3516,4.1096,9.3756,0.3692,-0.0199,2.9602,-1.3409,-5.1498,8.04,0.999999,0,1698371512,30
-0.1989,0.9706,-0.1628,-2.4738,0.6243,1.8562,0.1516,-0.0716,10.2793,2.7478,-2.8465,1.918,5.4958,-0.4345,4.0132,9.0233,0.4709,-0.0898,2.9737,-1.6429,-4.9326,7.8119,1,0,1698371512,31
-0.1872,0.9614,-0.1898,-2.5469,0.2275,1.8963,-0.1782,-0.3688,10.0599,2.7662,-2.0031,2.3259,5.4358,-0.7604,3.9139,8.6719,0.4083,-0.7591,3.2424,-2.0361,-4.7992,7.6326,1,0,1698371512,32
-0.1782,0.9224,-0.2154,-2.5752,-0.0702,1.9069,-0.4037,-0.6676,10.479,2.5038,-1.4582,2.4241,5.2468,-0.9683,3.8642,8.6849,0.2405,-1.1735,3.4844,-2.0589,-4.849,7.6495,1,0,1698371512,32
-0.1695,0.8893,-0.2415,-2.585,-0.3551,1.8827,-0.665,-1.1242,10.6179,2.4306,-0.9003,2.3811,4.9211,-1.1415,3.8169,8.76,0.0292,-1.5601,3.7592,-1.9563,-4.9655,7.7262,1,0,1698371512,33
-0.1607,0.8586,-0.2653,-2.5006,-0.5423,1.7276,-0.931,-1.6373,10.5136,2.3885,-0.3553,2.2403,4.4704,-1.2937,3.8099,8.8844,-0.1835,-1.8733,4.0384,-1.7517,-5.1187,7.8427,1,0,1698371512,34
-0.152,0.8306,-0.2876,-2.3419,-0.5845,1.5313,-1.17,-2.1522,10.1746,2.2895,0.1114,2.0133,3.9354,-1.4397,3.835,9.0475,-0.3581,-2.0023,4.2799,-1.4809,-5.2418,7.9569,1,0,1698371512,35
-0.1426,0.8267,-0.3086,-2.2306,-0.6472,1.3626,-1.4255,-2.4705,9.8961,2.1514,0.4279,1.6964,3.3605,-1.5456,3.8501,9.1873,-0.4673,-1.9278,4.4376,-1.181,-5.3144,8.0374,0.999974,0,1698371512,36
-0.1324,0.8477,-0.3267,-2.131,-0.6473,1.1055,-1.664,-2.6614,9.7023,2.0562,0.5536,1.325,2.7818,-1.5659,3.8432,9.2919,-0.4771,-1.7455,4.4673,-0.8967,-5.3467,8.0761,0.993479,0,1698371512,37
-0.1213,0.8738,-0.3432,-1.9895,-0.4787,0.7507,-1.8663,-2.7477,9.3111,1.9884,0.5123,0.9888,2.2361,-1.479,3.8349,9.3362,-0.3944,-1.488,4.3804,-0.654,-5.324,8.0517,0.863843,0,1698371512,38
-0.1093,0.9188,-0.3587,-1.8332,-0.2471,0.3873,-2.0286,-2.7356,8.9282,1.9066,0.3533,0.7353,1.7568,-1.3233,3.83,9.3055,-0.2458,-1.1406,4.2072,-0.4615,-5.2342,7.984,0.644729,0,1698371512,38
-0.0975,0.945,-0.3712,-1.6493,0.0376,-0.0176,-2.1213,-2.7494,8.5947,1.8951,0.1301,0.5759,1.3675,-1.146,3.8118,9.2177,-0.069,-0.7591,3.95,-0.3333,-5.0957,7.8917,0.474673,0,1698371512,39
-0.0865,0.9108,-0.3807,-1.453,0.2502,-0.3722,-2.1738,-2.6463,8.4231,1.7882,-0.1004,0.505,1.0761,-0.9548,3.7797,9.0667,0.0777,-0.4134,3.6514,-0.2717,-4.9291,7.7652,0.343612,0,1698371512,40
-0.0766,0.9124,-0.3886,-1.288,0.3096,-0.634,-2.1916,-2.423,8.6134,1.5327,-0.3076,0.5001,0.8865,-0.7641,3.7327,8.8774,0.1584,-0.1193,3.3419,-0.2776,-4.7503,7.6348,0.242511,0,1698371512,41
-0.0673,0.9438,-0.3959,-1.157,0.314,-0.8357,-2.1798,-2.1592,8.8529,1.2771,-0.4583,0.5381,0.7972,-0.6026,3.6787,8.688,0.1632,0.1049,3.0554,-0.3266,-4.5897,7.5146,0.164586,0,1698371512,42
-0.0576,0.9517,-0.4036,-1.0418,0.2536,-0.9974,-2.1485,-1.9136,9.1475,1.0999,-0.5327,0.5932,0.7763,-0.4774,3.6096,8.4951,0.1131,0.2722,2.8185,-0.391,-4.457,7.399,0.105481,0,1698371512,43
-0.0481,0.9651,-0.4109,-0.9375,0.1359,-1.1077,-2.0747,-1.682,9.3581,1.0315,-0.5283,0.6453,0.7806,-0.3959,3.5494,8.3317,0.0232,0.3749,2.6404,-0.4617,-4.3445,7.3095,0.061882,0,1698371512,44
-0.0389,0.9562,-0.418,-0.8514,-0.0212,-1.1848,-1.991,-1.5168,9.5583,0.9979,-0.4439,0.6722,0.7695,-0.349,3.5244,8.2071,-0.0799,0.3941,2.5276,-0.5259,-4.2577,7.2432,0.03072,0,1698371512,44
-0.0302,0.9135,-0.4248,-0.7961,-0.2139,-1.226,-1.8783,-1.3992,9.7192,0.9536,-0.294,0.659,0.7139,-0.3216,3.5076,8.142,-0.1728,0.3435,2.4545,-0.5606,-4.1961,7.1837,-0.070747,0,1698371512,45
-0.0229,0.8752,-0.4307,-0.7684,-0.2588,-1.2801,-1.7285,-1.3466,9.4886,1.0168,-0.0983,0.6155,0.6043,-0.3032,3.4921,8.1213,-0.2552,0.2564,2.3884,-0.5479,-4.1593,7.1506,-0.249705,0,1698371512,46
-0.0169,0.8075,-0.4366,-0.7303,-0.2774,-1.3614,-1.5722,-1.2517,9.0877,1.1869,0.1159,0.5647,0.451,-0.2884,3.5074,8.1263,-0.326,0.1785,2.2952,-0.4991,-4.1288,7.1719,-0.413322,0,1698371512,47
-0.0119,0.7134,-0.4423,-0.6822,-0.8062,-1.2961,-1.1763,-1.3118,8.6322,1.5203,0.516,0.462,0.0674,-0.2127,3.5737,8.3001,-0.3943,0.1313,1.9681,-0.3556,-4.1745,7.3224,-0.543872,0,1698371512,48
-0.0073,0.6419,-0.4469,-0.6215,-0.8062,-1.2961,-1.1763,-1.3118,8.6322,1.5203,0.516,0.462,0.0674,-0.2127,3.5737,8.3001,-0.3943,0.1313,1.9681,-0.3556,-4.1745,7.3224,-0.645712,0,1698371512,49
-0.0028,0.6053,-0.4502,-0.5479,-1.6239,-1.0033,-0.7612,-1.3928,8.8495,1.331,0.7201,0.4626,-0.2949,-0.0746,3.6774,8.5798,-0.3993,0.1555,1.4442,-0.2532,-4.2899,7.5416,-0.724814,0,1698371512,50
0.0014,0.5665,-0.4526,-0.4486,-1.8857,-0.918,-0.5132,-1.4582,8.8867,1.3126,0.7133,0.5073,-0.4358,-0.0029,3.7462,8.6939,-0.3876,0.1922,1.1588,-0.2133,-4.334,7.6343,-0.786255,0,1698371512,50
0.0049,0.5059,-0.4539,-0.3485,-2.1717,-0.8517,-0.2753,-1.5164,8.9484,1.1927,0.6355,0.5735,-0.552,0.0493,3.8175,8.7755,-0.3607,0.2608,0.8672,-0.1843,-4.3529,7.7107,-0.833978,0,1698371512,51
0.0087,0.4692,-0.4541,-0.2725,-2.6879,-0.7235,-0.0497,-1.3949,8.9675,1.0207,0.5018,0.6513,-0.6406,0.076,3.8788,8.8181,-0.3176,0.36,0.576,-0.152,-4.3444,7.7553,-0.871045,0,1698371512,52
0.0138,0.482,-0.4538,-0.2001,-2.9703,-0.6393,0.1775,-1.3475,8.7134,1.0552,0.3357,0.734,-0.6949,0.0844,3.9221,8.8033,-0.273,0.4687,0.2841,-0.1173,-4.3151,7.7779,-0.899592,0,1698371512,53
0.0201,0.5289,-0.4527,-0.1078,-2.9443,-0.5091,0.4137,-1.2452,8.1558,1.2173,0.1573,0.805,-0.7149,0.0602,3.9638,8.7472,-0.2384,0.5829,-0.009,-0.1127,-4.2616,7.7877,-0.913097,0,1698371512,54
0.0267,0.5803,-0.4494,0.011,-2.9113,-0.4574,0.661,-1.0025,7.6176,1.329,-0.0102,0.8482,-0.7075,-0.0024,4.0061,8.6686,-0.2158,0.7261,-0.2989,-0.1338,-4.1933,7.7891,-0.906622,0,1698371512,55
0.0335,0.6125,-0.4428,0.1689,-2.7025,-0.5664,0.9529,-0.9083,7.2843,1.3215,-0.1472,0.8485,-0.6813,-0.0887,4.0437,8.5969,-0.217,0.8953,-0.5939,-0.194,-4.1151,7.7943,-0.903876,0,1698371512,56
0.0408,0.6331,-0.433,0.3414,-2.3315,-0.6647,1.292,-1.0952,7.2032,1.2274,-0.2331,0.7866,-0.6541,-0.1921,4.078,8.5655,-0.2495,1.0379,-0.9109,-0.3148,-4.0466,7.8071,-0.918082,0,1698371512,56
0.0485,0.6787,-0.4212,0.5104,-1.8822,-0.764,1.6049,-1.4093,7.2588,1.0578,-0.2462,0.6413,-0.6534,-0.3165,4.1014,8.5782,-0.3122,1.1042,-1.2304,-0.4514,-4.0309,7.8304,-0.935465,0,1698371513,57
0.0566,0.7147,-0.4083,0.6703,-1.3893,-0.8821,1.8445,-1.6415,7.3408,0.928,-0.1958,0.3913,-0.7151,-0.4324,4.1164,8.6322,-0.3898,1.0876,-1.5024,-0.5748,-4.0857,7.855,-0.949838,0,1698371513,58
0.0652,0.7362,-0.3952,0.7632,-0.8939,-0.9994,2.0007,-1.7422,7.4531,0.9357,-0.103,0.0471,-0.8695,-0.4845,4.1161,8.7365,-0.463,1.027,-1.7034,-0.682,-4.2077,7.8844,-0.961034,0,1698371513,59
0.0741,0.7689,-0.383,0.8027,-0.562,-1.018,2.0693,-1.6627,7.5834,1.1095,0.0211,-0.3541,-1.1139,-0.4768,4.1051,8.8917,-0.5317,0.9347,-1.8383,-0.759,-4.373,7.9351,-0.969596,0,1698371513,60
0.0829,0.7596,-0.3723,0.8228,-0.0341,-0.9523,1.8557,-1.3366,8.6101,1.401,0.2492,-1.1215,-1.7439,-0.3471,4.1585,9.2728,-0.6839,0.6958,-1.9444,-0.7759,-4.6923,8.1062,-0.976161,0,1698371513,61
0.0911,0.7374,-0.3635,0.7912,0.082,-0.8851,1.6115,-1.0419,9.2363,1.3928,0.3193,-1.4015,-2.0691,-0.21,4.1437,9.4617,-0.7655,0.6374,-1.9453,-0.7379,-4.8745,8.1849,-0.981376,0,1698371513,62
0.0975,0.6935,-0.3576,0.6803,0.2037,-0.833,1.346,-0.87,9.7652,1.2283,0.3721,-1.5781,-2.3473,-0.0367,4.0928,9.6534,-0.822,0.6006,-1.9393,-0.7226,-5.066,8.257,-0.985512,0,1698371513,62
0.1018,0.5934,-0.3559,0.5157,0.2437,-0.5428,1.0775,-0.7222,9.9916,1.0238,0.4097,-1.647,-2.5379,0.1369,4.0496,9.8354,-0.8387,0.5669,-1.9277,-0.7331,-5.2455,8.33,-0.988736,0,1698371513,63
0.1047,0.5152,-0.3569,0.363,0.2995,-0.3558,0.817,-0.6179,9.9507,0.9684,0.415,-1.6026,-2.6262,0.314,4.0278,10,-0.8125,0.5433,-1.9051,-0.7549,-5.4081,8.4045,-0.991194,0,1698371513,64
0.1074,0.4794,-0.3577,0.2525,0.4161,-0.4849,0.5687,-0.7087,9.7462,0.8713,0.3732,-1.4829,-2.6173,0.4462,4.0143,10.1321,-0.7571,0.4678,-1.8782,-0.7825,-5.5326,8.481,-0.992905,0,1698371513,65
0.1101,0.4327,-0.3579,0.1808,0.4683,-0.592,0.3391,-0.8915,9.5396,0.7024,0.2861,-1.3524,-2.526,0.4805,4.0143,10.2281,-0.7048,0.3019,-1.8624,-0.8206,-5.6103,8.5599,-0.99314,0,1698371513,66
0.1124,0.3782,-0.3579,0.1428,0.4748,-0.6607,0.1481,-1.176,9.5656,0.5039,0.1861,-1.2365,-2.3749,0.4181,4.0365,10.3352,-0.6965,0.0988,-1.8765,-0.8755,-5.6583,8.661,-0.98885,0,1698371513,67
0.1135,0.3077,-0.3577,0.1284,0.508,-0.7763,-0.0063,-1.5423,9.9817,0.3713,0.1561,-1.1977,-2.2133,0.2499,4.09,10.5115,-0.7693,-0.1058,-1.9352,-0.9139,-5.6943,8.7874,-0.984091,0,1698371513,68
0.1136,0.2306,-0.357,0.1383,0.6633,-0.9598,-0.1739,-1.8515,10.5075,0.4482,0.1482,-1.2374,-2.1014,0.0437,4.1538,10.7208,-0.9247,-0.3141,-2.0234,-0.8924,-5.7835,8.9359,-0.984024,0,1698371513,68
0.1134,0.1745,-0.3548,0.1728,0.5495,-1.1773,-0.3638,-1.9371,10.504,0.7317,0.1122,-1.3211,-2.0912,-0.1224,4.1975,10.9205,-1.1077,-0.4819,-2.1022,-0.8198,-5.9824,9.065,-0.986459,0,1698371513,69
0.113,0.1315,-0.3497,0.2538,0.301,-1.348,-0.5087,-1.7099,10.2452,1.1616,0.04,-1.4721,-2.1957,-0.2317,4.2172,11.1131,-1.2378,-0.5534,-2.1557,-0.721,-6.2416,9.1526,-0.989394,0,1698371513,70
0.1123,0.0616,-0.3413,0.3794,0.4019,-1.461,-0.6102,-1.4676,10.2289,1.6244,-0.1056,-1.6448,-2.363,-0.3197,4.2307,11.2763,-1.2972,-0.5178,-2.2023,-0.6431,-6.4769,9.2478,-0.991757,0,1698371513,71
0.11,-0.0395,-0.3323,0.4972,0.9797,-1.7302,-0.712,-1.64,10.7995,1.9574,-0.2452,-1.7918,-2.5475,-0.4432,4.2572,11.4292,-1.3253,-0.416,-2.2727,-0.6198,-6.6626,9.3651,-0.993592,0,1698371513,72
0.1048,-0.1601,-0.3247,0.5411,2.0062,-1.59,-0.9274,-1.3875,11.3448,2.5436,-0.4519,-1.9685,-2.9752,-0.5834,4.2152,11.5942,-1.2954,-0.2394,-2.4869,-0.5271,-6.985,9.5046,-0.994953,0,1698371513,73
0.0956,-0.3648,-0.3191,0.4963,2.0213,-1.4904,-1.1152,-1.0566,11.5911,2.8128,-0.5993,-1.9444,-3.161,-0.5432,4.1268,11.5206,-1.1289,-0.1623,-2.5977,-0.4286,-7.1279,9.4988,-0.990207,0,1698371513,74
0.0814,-0.6209,-0.3171,0.3761,2.0049,-1.4472,-1.0515,-0.8338,11.518,2.8601,-0.7922,-1.7722,-3.2389,-0.5157,3.9848,11.3226,-0.7881,-0.035,-2.7178,-0.3391,-7.203,9.3606,-0.977887,0,1698371513,74
0.0629,-0.861,-0.3169,0.2829,1.7194,-1.3718,-0.967,-0.8347,11.5845,2.7269,-1.0486,-1.4442,-3.1946,-0.5423,3.7923,10.9801,-0.2874,0.1823,-2.8656,-0.2578,-7.1678,9.109,-0.923033,0,1698371513,75
0.0408,-1.1446,-0.3154,0.2945,1.2548,-1.2911,-1.0735,-0.956,11.7343,2.4145,-1.367,-1.0249,-3.0579,-0.6112,3.5481,10.5382,0.3316,0.4917,-3.0691,-0.1959,-7.0277,8.7721,-0.668397,0,1698371513,76
0.0133,-1.4331,-0.3095,0.4026,0.9971,-1.1901,-1.0966,-0.8206,11.4374,2.1424,-1.6902,-0.6208,-2.8725,-0.6998,3.2432,10.0501,1.0305,0.87,-3.3549,-0.1853,-6.8242,8.3552,-0.299087,0,1698371513,77
-0.0176,-1.6347,-0.2995,0.5376,0.9341,-1.2744,-1.0242,-0.6272,10.7796,2.0762,-1.9404,-0.3027,-2.6705,-0.8271,2.9262,9.5708,1.7259,1.2185,-3.7355,-0.2359,-6.5694,7.9309,-0.010081,0,1698371513,78
-0.0465,-1.8492,-0.2878,0.6678,0.9031,-1.5521,-0.8615,-0.6213,10.149,2.1415,-2.0895,-0.1324,-2.4974,-0.9747,2.6421,9.1693,2.3155,1.5104,-4.1819,-0.3414,-6.2946,7.5564,0.21503,0,1698371513,79
-0.0736,-2.0122,-0.276,0.7997,0.8568,-1.772,-0.7104,-0.7547,10.0363,2.2936,-2.121,-0.1227,-2.4141,-1.1013,2.4267,8.8684,2.7479,1.8087,-4.6326,-0.4785,-6.0864,7.2324,0.390259,0,1698371513,79
-0.0994,-2.1134,-0.2652,0.8681,0.8183,-1.9795,-0.6254,-0.9735,10.0164,2.5568,-1.9844,-0.2346,-2.4576,-1.1772,2.2578,8.6829,3.0344,2.1018,-5.0151,-0.6373,-5.9985,6.9919,0.526376,0,1698371513,80
-0.1238,-2.2266,-0.2557,0.8763,0.6461,-2.1048,-0.6309,-0.9737,10.1392,2.6905,-1.6686,-0.4297,-2.6278,-1.2105,2.1502,8.6347,3.1742,2.3388,-5.2653,-0.8136,-5.9943,6.8265,0.63208,0,1698371513,81
-0.1473,-2.2948,-0.247,0.8549,0.3879,-2.1809,-0.671,-0.9343,10.5825,2.6997,-1.2061,-0.6945,-2.8912,-1.2212,2.1155,8.7087,3.143,2.5195,-5.3752,-1,-6.0336,6.7392,0.71405,0,1698371513,82
-0.1708,-2.3389,-0.2392,0.8193,0.1371,-2.1727,-0.6706,-0.82,10.9228,2.667,-0.65,-1.0213,-3.2006,-1.2144,2.1115,8.8883,2.939,2.6377,-5.3618,-1.1974,-6.1122,6.7663,0.77756,0,1698371513,83
-0.1941,-2.3029,-0.2317,0.8278,-0.0969,-2.0597,-0.6107,-0.4183,11.1652,2.5475,-0.0842,-1.3441,-3.5185,-1.1614,2.1613,9.1703,2.5913,2.6784,-5.2525,-1.4074,-6.2548,6.8809,0.826977,0,1698371513,84
-0.2162,-2.2258,-0.2237,0.8333,-0.2292,-1.8945,-0.4585,0.038,11.1287,2.6196,0.3978,-1.5965,-3.8157,-1.0416,2.2762,9.4976,2.1432,2.5302,-5.0679,-1.5767,-6.4161,7.0899,0.865516,0,1698371513,85
-0.2368,-2.2002,-0.2154,0.8192,-0.2409,-1.7278,-0.2167,0.4224,10.9336,2.7868,0.7399,-1.7082,-4.0516,-0.8614,2.4336,9.8221,1.6852,2.1705,-4.8197,-1.6413,-6.5416,7.3525,0.895159,0,1698371513,85
-0.2565,-2.1305,-0.2066,0.8258,-0.2379,-1.5088,0.0794,0.6545,10.5843,2.9036,0.9229,-1.6791,-4.1889,-0.6274,2.5863,10.0998,1.3269,1.6542,-4.5502,-1.5825,-6.6573,7.6195,0.91695,0,1698371513,86
-0.2746,-2.0249,-0.1975,0.8451,-0.2476,-1.1496,0.421,0.8082,10.2098,2.9013,0.956,-1.5372,-4.1992,-0.3721,2.7092,10.3029,1.1534,1.0512,-4.2983,-1.396,-6.7397,7.8341,0.923891,0,1698371513,87
-0.2904,-1.9384,-0.1882,0.887,-0.1426,-0.7793,0.8175,0.7986,9.8015,2.8958,0.8547,-1.254,-4.0614,-0.102,2.7798,10.4276,1.1627,0.4601,-4.0992,-1.1369,-6.7539,7.9241,0.929986,0,1698371513,88
-0.3042,-1.8093,-0.1789,0.9129,0.0011,-0.3793,1.2329,0.6718,9.3476,2.8997,0.6473,-0.8448,-3.7857,0.1488,2.7862,10.4498,1.2696,-0.1123,-3.9719,-0.8735,-6.6768,7.913,0.94505,0,1698371513,89
-0.3163,-1.6681,-0.1694,0.9297,0.0574,0.0542,1.628,0.5416,9.0429,2.8317,0.3797,-0.3804,-3.4063,0.311,2.733,10.3749,1.4071,-0.5476,-3.9087,-0.609,-6.514,7.8178,0.957316,0,1698371513,90
-0.3278,-1.5301,-0.1594,0.9414,0.1275,0.4599,1.9758,0.4333,8.8898,2.6921,0.0978,0.0689,-2.9701,0.3784,2.6494,10.1967,1.5225,-0.7399,-3.8844,-0.3565,-6.298,7.6626,0.966846,0,1698371513,91
-0.3386,-1.4194,-0.1492,0.9291,0.1939,0.8347,2.2868,0.3224,8.8055,2.5304,-0.1477,0.4495,-2.5375,0.3861,2.5658,9.939,1.5883,-0.7155,-3.8774,-0.1553,-6.0562,7.4715,0.974249,0,1698371513,91
-0.3484,-1.3458,-0.1392,0.9084,0.2344,1.1258,2.5548,0.1763,8.9013,2.3187,-0.3306,0.7093,-2.1683,0.3566,2.4947,9.6411,1.584,-0.5431,-3.8882,-0.0148,-5.8107,7.2466,0.979998,0,1698371513,92
-0.3575,-1.2751,-0.1291,0.9162,0.2386,1.3306,2.7408,0.0883,9.0213,2.0688,-0.4497,0.8403,-1.8935,0.3101,2.4261,9.337,1.5116,-0.2865,-3.9077,0.0511,-5.59,7,0.984464,0,1698371513,93
-0.367,-1.1953,-0.1185,0.9571,0.0921,1.3092,2.8834,-0.2003,9.3267,1.383,-0.4136,0.6427,-1.5818,0.2969,2.1649,8.6916,1.0828,0.4971,-3.486,-0.1619,-5.1791,6.4428,0.987933,0,1698371513,94
-0.381,-1.0952,-0.1033,0.9899,-0.0296,1.0939,2.8137,-0.3047,9.171,1.3952,-0.3267,0.487,-1.5564,0.3345,2.0871,8.5757,0.8837,0.576,-3.0865,-0.284,-5.1171,6.3345,0.990627,0,1698371513,95
-0.3934,-1.0146,-0.0889,0.9691,-0.2349,1.126,2.6667,-0.2511,9.0073,1.3362,-0.2285,0.3677,-1.5204,0.3967,2.0293,8.5063,0.6498,0.6023,-2.5896,-0.3612,-5.0871,6.2857,0.99272,0,1698371513,96
-0.4001,-0.9246,-0.0799,0.9168,-0.4336,1.1492,2.4613,-0.214,8.9317,1.257,-0.1241,0.3023,-1.4567,0.4837,2.0029,8.4855,0.4,0.6321,-2.0409,-0.3845,-5.1077,6.2922,0.994345,0,1698371513,97
-0.4059,-0.8004,-0.0717,0.8641,-0.6493,1.117,2.2029,-0.2044,8.9732,1.2241,-0.0252,0.2924,-1.3569,0.5722,1.9928,8.518,0.1548,0.7107,-1.474,-0.3558,-5.173,6.3517,0.995608,0,1698371513,97
-0.41,-0.6691,-0.0643,0.834,-0.8986,1.0919,1.8897,-0.1067,9.0575,1.1258,0.0687,0.3274,-1.2155,0.6414,1.9812,8.5801,-0.051,0.793,-0.9477,-0.2962,-5.2573,6.4471,0.996588,0,1698371513,98
-0.4117,-0.533,-0.0577,0.8113,-1.1016,1.0716,1.5561,-0.0222,9.0961,1.0669,0.1493,0.398,-1.035,0.6949,1.9746,8.6647,-0.1836,0.7871,-0.5056,-0.2103,-5.3515,6.5477,0.997348,0,1698371513,99
-0.412,-0.4053,-0.0516,0.7466,-1.2858,1.0491,1.2254,0.0942,9.2423,0.9818,0.2213,0.486,-0.8282,0.725,1.9702,8.782,-0.2601,0.6836,-0.1546,-0.1149,-5.4491,6.6435,0.997938,0,1698371513,0
-0.4119,-0.2999,-0.0459,0.6823,-1.4876,1.0256,0.9055,0.1911,9.4312,0.8874,0.2832,0.5698,-0.6037,0.7294,1.9599,8.8988,-0.2787,0.5291,0.1036,-0.0099,-5.5443,6.7398,0.998392,0,1698371513,1
-0.4114,-0.2144,-0.0405,0.6554,-1.6332,0.98,0.605,0.1981,9.4553,0.7892,0.3236,0.6434,-0.3672,0.7154,1.9444,9.0004,-0.242,0.3998,0.3016,0.0947,-5.632,6.837,0.998741,0,1698371513,2
-0.4107,-0.1499,-0.0351,0.6234,-1.7217,0.891,0.3205,0.1018,9.339,0.6678,0.3533,0.7133,-0.1204,0.6858,1.9329,9.086,-0.1828,0.3223,0.4775,0.1826,-5.7067,6.9217,0.999007,0,1698371513,2
-0.4097,-0.09,-0.0304,0.5826,-1.7597,0.7818,0.0449,0.0675,9.1786,0.6378,0.3755,0.7906,0.1335,0.6527,1.9136,9.1371,-0.0959,0.2808,0.6295,0.2431,-5.7779,6.9687,0.999183,0,1698371513,3
-0.4069,0.0282,-0.0262,0.5599,-1.9775,0.8162,-0.2321,0.3339,8.7935,0.8541,0.3799,0.8822,0.3964,0.62,1.8825,9.1393,0.0329,0.2913,0.768,0.2738,-5.8348,6.9886,0.999298,0,1698371513,4
-0.4007,0.2283,-0.0214,0.562,-2.3803,0.9316,-0.5138,0.6236,8.7221,0.8604,0.3783,0.9806,0.6713,0.5623,1.8651,9.1239,0.1773,0.2857,0.9003,0.2672,-5.8471,6.9707,0.999395,0,1698371513,5
-0.3907,0.449,-0.0156,0.5792,-2.451,0.9429,-0.7727,0.617,8.8622,0.6402,0.3923,1.0579,0.953,0.4635,1.8574,9.1125,0.2988,0.4144,1.0278,0.2124,-5.8359,6.9242,0.999478,0,1698371513,6
-0.3763,0.6923,-0.0096,0.5906,-2.1958,0.9729,-0.9908,0.5829,8.5544,0.5993,0.4297,1.0881,1.2425,0.3429,1.8498,9.0926,0.383,0.412,1.1557,0.1273,-5.8461,6.9028,0.999538,0,1698371513,7
-0.3594,0.9101,-0.003,0.6173,-1.8766,1.0814,-1.1576,0.6495,8.1413,0.6756,0.4894,1.0528,1.533,0.2225,1.8391,9.0714,0.433,0.2236,1.262,0.0291,-5.8661,6.888,0.999574,0,1698371513,7
-0.3416,1.054,0.0048,0.6528,-1.116,1.2905,-1.3511,0.8593,8.1337,1.1069,0.6772,0.737,2.0058,0.0447,1.8403,9.1077,0.3636,-0.1677,1.4767,-0.1144,-5.9464,6.9368,0.999625,0,1698371513,8
-0.3194,1.19,0.0159,0.6984,-1.0234,1.4065,-1.3463,0.8939,8.5458,1.1719,0.7796,0.4818,2.1557,-0.0136,1.8668,9.1665,0.2842,-0.45,1.5905,-0.1485,-6.0111,7.0283,0.999673,0,1698371513,9
-0.2991,1.2328,0.0269,0.7063,-0.8977,1.7003,-1.2685,0.8346,9.069,1.2475,0.8804,0.2069,2.2457,-0.0419,1.928,9.2618,0.2046,-0.7195,1.7488,-0.1544,-6.0694,7.1472,0.999715,0,1698371513,10
-0.2866,1.1438,0.0341,0.6806,-0.5496,1.8535,-1.1185,0.6964,8.7076,1.7804,0.9903,-0.0314,2.2884,-0.0312,2.0017,9.3866,0.1249,-0.9493,1.9629,-0.1218,-6.1168,7.2807,0.999772,0,1698371513,11
-0.2801,0.9685,0.0395,0.6468,-0.3184,1.7092,-0.9662,0.5823,8.024,2.3948,1.1225,-0.2156,2.3019,-0.005,2.0891,9.5469,0.0289,-1.1883,2.2221,-0.0542,-6.1568,7.4368,0.999821,0,1698371513,12
-0.279,0.7235,0.0426,0.5687,-0.2709,1.6099,-0.859,0.5833,8.5793,2.4524,1.2627,-0.3459,2.3081,0.0245,2.2067,9.7276,-0.0747,-1.3859,2.4738,0.053,-6.1844,7.6125,0.999861,0,1698371513,12
-0.2805,0.5063,0.0437,0.4582,-0.3184,1.612,-0.7758,0.8026,9.5061,2.1183,1.3784,-0.4096,2.3164,0.0505,2.3417,9.9093,-0.1721,-1.4959,2.67,0.1837,-6.2232,7.7699,0.999892,0,1698371513,13
-0.2833,0.3202,0.0439,0.3516,-0.334,1.6665,-0.7017,1.004,10.1715,1.5983,1.441,-0.4216,2.3186,0.0673,2.4802,10.0895,-0.2427,-1.4791,2.7842,0.2934,-6.2932,7.9068,0.999916,0,1698371513,14
-0.2876,0.1276,0.0441,0.2925,-0.2301,1.7165,-0.582,0.9619,10.5878,1.1369,1.4385,-0.4062,2.3151,0.0916,2.5974,10.2431,-0.266,-1.3902,2.8038,0.3463,-6.375,8.0164,0.999935,0,1698371513,15
-0.2927,-0.0188,0.0446,0.2515,-0.1163,1.7953,-0.466,0.9032,10.7283,0.8237,1.3965,-0.3925,2.3116,0.1238,2.6814,10.3971,-0.239,-1.3245,2.7252,0.3262,-6.4472,8.0857,0.999949,0,1698371513,16
-0.2972,-0.0913,0.0453,0.2159,-0.0466,1.889,-0.3878,0.9854,10.7632,0.6227,1.3673,-0.4083,2.3131,0.1533,2.7446,10.5777,-0.1975,-1.311,2.5697,0.2357,-6.5209,8.1805,0.999961,0,1698371513,17
-0.3,-0.1118,0.0465,0.2018,0.0229,2.0112,-0.3467,1.1385,10.8322,0.5513,1.3838,-0.4666,2.3313,0.1683,2.8145,10.7808,-0.1789,-1.3091,2.3986,0.0901,-6.6067,8.3145,0.999969,0,1698371513,17
-0.3007,-0.0993,0.0473,0.1744,0.1024,2.1751,-0.3395,1.2427,11.0853,0.5872,1.4265,-0.5579,2.3796,0.1818,2.9108,11.0139,-0.2003,-1.2973,2.2716,-0.0925,-6.6931,8.4688,0.999976,0,1698371513,18
-0.2994,-0.023,0.0473,0.1396,0.3823,2.299,-0.2794,1.1232,11.2641,0.7725,1.4681,-0.6552,2.4605,0.2144,3.0385,11.2604,-0.2654,-1.3197,2.2267,-0.3234,-6.7809,8.656,0.999981,0,1698371513,19
-0.2951,0.1114,0.0469,0.1138,0.8145,2.3143,-0.1917,0.8949,10.6889,1.4783,1.5013,-0.7317,2.5677,0.267,3.209,11.5041,-0.3697,-1.4266,2.2932,-0.5452,-6.8693,8.8688,0.999986,0,1698371513,20
-0.2874,0.2774,0.0464,0.0815,1.0411,2.3193,-0.1356,0.7063,10.4095,2.1665,1.5279,-0.7408,2.6978,0.3247,3.4382,11.7601,-0.5232,-1.6289,2.4761,-0.6862,-6.9402,9.1327,0.999989,0,1698371513,21
-0.2768,0.4584,0.0452,-0.0122,0.9708,2.4289,0.0154,0.3687,10.7951,2.4616,1.5239,-0.6626,2.8594,0.3509,3.6922,12.0188,-0.731,-1.919,2.7324,-0.7591,-7.023,9.4416,0.999991,0,1698371513,21
-0.2655,0.6026,0.0412,-0.1949,0.8847,2.6393,0.309,-0.2503,11.5215,2.7472,1.4416,-0.498,3.071,0.3156,3.9485,12.2372,-0.9367,-2.2244,3.0098,-0.7813,-7.1362,9.7343,0.999993,0,1698371513,22
-0.2558,0.6777,0.0333,-0.3924,1.1485,2.6553,0.6829,-0.9692,12.3187,2.8613,1.2344,-0.2908,3.3103,0.2537,4.2037,12.3654,-1.0769,-2.5273,3.302,-0.7495,-7.2228,9.9444,0.999995,0,1698371513,23
-0.2487,0.6789,0.0211,-0.5954,1.7394,2.4019,1.038,-1.5207,12.5007,2.8789,0.8724,-0.0643,3.5507,0.1853,4.4495,12.3599,-1.1014,-2.7796,3.6108,-0.6375,-7.2009,10.0558,0.999996,0,1698371513,24
-0.2446,0.5977,0.0049,-0.856,2.1609,2.0695,1.3479,-1.9362,12.545,2.8925,0.3569,0.2045,3.7945,0.099,4.6672,12.2161,-1.0114,-2.8946,3.8856,-0.4308,-7.0098,10.0483,0.999997,0,1698371513,25
-0.2428,0.5056,-0.0145,-1.1499,2.0843,1.8693,1.5844,-1.9078,12.356,2.7775,-0.2907,0.5173,4.0436,0.0047,4.809,11.8994,-0.8495,-2.8049,4.1066,-0.206,-6.662,9.8615,0.999998,0,1698371513,26
-0.2395,0.5032,-0.0377,-1.3814,1.2707,2.024,1.6419,-1.1643,12.3279,2.276,-1.0221,0.8898,4.3027,-0.0786,4.8443,11.4188,-0.6461,-2.4456,4.2886,-0.0585,-6.2141,9.5231,0.999998,0,1698371513,26
-0.232,0.5639,-0.0647,-1.5667,0.4163,2.1356,1.5571,-0.5999,12.9328,1.7261,-1.7282,1.2856,4.5533,-0.137,4.7672,10.8514,-0.4302,-1.927,4.395,-0.0403,-5.7136,9.1174,0.999999,0,1698371513,27
-0.2206,0.7013,-0.0937,-1.8179,0.2933,1.8211,1.1379,-0.6741,11.4387,1.9412,-2.7594,1.7371,4.9227,-0.2492,4.411,9.6852,-0.1156,-0.9708,4.2542,-0.2947,-4.7936,8.2534,0.999999,0,1698371513,28
-0.2067,0.8451,-0.123,-2.0939,-0.0003,1.7386,0.8409,-0.6078,10.6056,2.235,-2.9626,1.8423,5.017,-0.3002,4.1925,9.1898,-0.0668,-0.5812,4.0811,-0.4654,-4.4686,7.8659,0.999999,0,1698371513,29
-0.1923,0.9159,-0.1511,-2.1871,-0.1772,1.6958,0.5992,-0.471,10.3664,2.3761,-2.9295,1.9079,5.0289,-0.366,3.9723,8.8082,-0.0714,-0.2735,3.9125,-0.6662,-4.2779,7.5557,0.999999,0,1698371513,30
-0.1804,0.9305,-0.1769,-2.2404,-0.2831,1.6369,0.425,-0.3822,10.218,2.4817,-2.6772,1.9759,4.9623,-0.469,3.7905,8.5532,-0.1125,-0.0754,3.7697,-0.9104,-4.2268,7.3366,0.999999,0,1698371513,31
-0.171,0.9126,-0.2024,-2.3689,-0.3943,1.6398,0.2795,-0.5128,10.025,2.5359,-2.2962,2.0687,4.8424,-0.6227,3.6563,8.4385,-0.1666,0.0026,3.6476,-1.1473,-4.2793,7.2217,0.999999,0,1698371513,31
-0.1627,0.8766,-0.2289,-2.4097,-0.4321,1.5569,0.0915,-0.8671,9.7157,2.5983,-1.864,2.1221,4.6564,-0.8154,3.5625,8.4494,-0.2214,-0.0467,3.5622,-1.3257,-4.4006,7.2116,0.999999,0,1698371513,32
-0.1543,0.8166,-0.2559,-2.365,-0.5143,1.3723,-0.155,-1.2562,9.4919,2.7315,-1.3979,2.0638,4.3798,-1.026,3.5316,8.5416,-0.2963,-0.1932,3.5342,-1.401,-4.5589,7.288,0.999993,0,1698371513,33
-0.1463,0.7769,-0.2818,-2.2727,-0.764,1.2655,-0.3951,-1.6508,9.702,2.661,-0.9489,1.8626,4.0065,-1.2336,3.561,8.673,-0.3929,-0.3957,3.5457,-1.3683,-4.7214,7.4243,0.99918,0,1698371513,34
-0.1387,0.7711,-0.3054,-2.2385,-0.8556,1.1903,-0.6225,-1.9424,9.6194,2.4915,-0.5806,1.57,3.5529,-1.4112,3.6258,8.8395,-0.4806,-0.5896,3.5734,-1.2603,-4.895,7.5905,0.979145,0,1698371513,35
-0.1308,0.7621,-0.3261,-2.195,-0.8901,1.0602,-0.8443,-2.0163,9.3342,2.3877,-0.3388,1.2788,3.054,-1.5369,3.7053,9.0255,-0.5446,-0.7419,3.583,-1.1021,-5.0469,7.7571,0.864994,0,1698371513,36
-0.1227,0.7499,-0.3427,-2.0518,-0.8846,0.8553,-1.0643,-2.0304,9.1458,2.3258,-0.2337,1.0194,2.5497,-1.5791,3.7534,9.1809,-0.5627,-0.8542,3.5435,-0.9229,-5.1552,7.903,0.596483,0,1698371514,36
-0.1144,0.7485,-0.3567,-1.8991,-0.7226,0.8333,-1.271,-1.9985,8.8701,2.2584,-0.2338,0.7752,2.0831,-1.5109,3.7606,9.2885,-0.5111,-0.8596,3.4405,-0.724,-5.2212,7.9963,0.309929,0,1698371514,37
-0.106,0.7706,-0.3689,-1.7715,-0.5209,0.725,-1.4562,-1.8835,8.6599,2.1909,-0.3106,0.555,1.6797,-1.3594,3.7477,9.3309,-0.3987,-0.6994,3.2718,-0.5544,-5.2289,8.0373,0.209581,0,1698371514,38
-0.0974,0.81,-0.3795,-1.6396,-0.2731,0.329,-1.6154,-1.7583,8.5919,2.1545,-0.4333,0.3864,1.3545,-1.167,3.7241,9.2984,-0.2568,-0.4744,3.0428,-0.4568,-5.1777,8.0319,0.186783,0,1698371514,39
-0.0883,0.8517,-0.3892,-1.5214,-0.0014,-0.045,-1.7408,-1.6776,8.6643,2.0516,-0.5525,0.3024,1.1163,-0.9605,3.6825,9.2184,-0.1099,-0.2544,2.7754,-0.4149,-5.0738,7.977,0.122803,0,1698371514,40
-0.0792,0.8868,-0.3989,-1.432,0.2472,-0.3918,-1.8603,-1.5968,8.9989,1.8755,-0.6264,0.3019,0.9629,-0.7661,3.6082,9.0926,0.0169,-0.0742,2.4995,-0.4169,-4.9479,7.8851,0.081864,0,1698371514,40
-0.0705,0.8503,-0.4086,-1.3376,0.4053,-0.6356,-1.9515,-1.5057,9.2293,1.7165,-0.6419,0.3483,0.8787,-0.5985,3.5257,8.9537,0.0899,-0.0109,2.2461,-0.438,-4.8148,7.7708,0.080727,0,1698371514,41
-0.0619,0.7905,-0.418,-1.2345,0.4659,-0.8343,-2.0197,-1.4771,9.4019,1.6088,-0.5987,0.4134,0.8311,-0.4587,3.4618,8.8228,0.1117,-0.0052,2.0526,-0.4634,-4.6909,7.6477,0.107502,0,1698371514,42
-0.0544,0.7625,-0.4266,-1.1296,0.455,-1.0219,-2.0463,-1.4691,9.4745,1.5746,-0.5045,0.4801,0.7857,-0.3702,3.4077,8.6905,0.0817,0.0333,1.9407,-0.4858,-4.5869,7.531,0.126875,0,1698371514,43
-0.0482,0.7417,-0.4351,-1.0634,0.2958,-1.0654,-2.038,-1.4271,9.5094,1.5197,-0.3684,0.5234,0.7154,-0.3266,3.3712,8.5938,-0.0098,0.0743,1.8989,-0.5059,-4.5015,7.4489,0.115657,0,1698371514,44
-0.0427,0.6944,-0.4433,-1.0326,0.1294,-1.0642,-1.9983,-1.4124,9.326,1.4781,-0.1978,0.5315,0.608,-0.3047,3.3544,8.5508,-0.1431,0.0848,1.9023,-0.5135,-4.454,7.4039,0.077581,0,1698371514,45
-0.0377,0.6376,-0.4512,-1.0098,-0.004,-1.1365,-1.9087,-1.4627,9.0416,1.4741,-0.0134,0.5165,0.4684,-0.3024,3.3475,8.5369,-0.3054,0.0648,1.9185,-0.4873,-4.4349,7.3914,-0.020085,0,1698371514,45
-0.0334,0.5855,-0.4595,-0.9687,-0.2619,-1.1561,-1.7836,-1.5159,9.1211,1.3687,0.1606,0.4912,0.302,-0.3159,3.351,8.5491,-0.4808,0.0374,1.9056,-0.4239,-4.4338,7.4046,-0.195787,0,1698371514,46
-0.0299,0.5496,-0.467,-0.9281,-0.6071,-1.1176,-1.6303,-1.5276,9.2446,1.2333,0.3093,0.4647,0.1113,-0.3194,3.359,8.5997,-0.6308,0.046,1.8384,-0.3336,-4.4615,7.4568,-0.375342,0,1698371514,47
-0.0264,0.5463,-0.4736,-0.8723,-1.0082,-1.0707,-1.4532,-1.4682,9.3221,1.1164,0.4231,0.4399,-0.0964,-0.2989,3.397,8.6866,-0.7268,0.0952,1.7087,-0.2385,-4.5065,7.5434,-0.51481,0,1698371514,48
-0.0229,0.5188,-0.4788,-0.7633,-1.2549,-1.0777,-1.2365,-1.4863,9.1417,1.0812,0.4911,0.4112,-0.3088,-0.2559,3.4554,8.7961,-0.7647,0.1752,1.5108,-0.1473,-4.5516,7.6374,-0.623139,0,1698371514,49
-0.0191,0.4834,-0.4816,-0.6174,-1.3511,-1.1172,-1.0059,-1.6358,8.9784,1.0974,0.5072,0.3975,-0.5003,-0.194,3.5118,8.9062,-0.7439,0.2757,1.2651,-0.0615,-4.5947,7.7213,-0.707281,0,1698371514,50
-0.0151,0.4846,-0.4822,-0.4734,-1.5145,-1.0814,-0.7935,-1.6627,9.0004,0.9828,0.4661,0.4132,-0.6541,-0.1389,3.5697,8.9977,-0.6758,0.3904,0.9941,0.0089,-4.6279,7.7886,-0.772636,0,1698371514,50
-0.0107,0.5241,-0.4819,-0.3667,-1.6397,-1.0843,-0.6167,-1.6317,8.9704,0.9208,0.3753,0.4416,-0.7796,-0.0857,3.6214,9.0476,-0.5956,0.5289,0.7061,0.0638,-4.6379,7.8412,-0.8234,0,1698371514,51
-0.0051,0.5614,-0.4815,-0.2822,-1.661,-1.1053,-0.4537,-1.6138,8.7681,0.9857,0.246,0.4637,-0.8847,-0.031,3.6548,9.0526,-0.5171,0.6467,0.409,0.0854,-4.6307,7.8711,-0.862829,0,1698371514,52
0.0014,0.5763,-0.4809,-0.1874,-1.5439,-1.1523,-0.3289,-1.5389,8.6481,0.9957,0.0919,0.4706,-0.9646,0.0058,3.6717,9.0082,-0.428,0.7305,0.1187,0.0637,-4.6075,7.8782,-0.893455,0,1698371514,53
0.0084,0.6066,-0.4783,-0.0535,-1.3327,-1.1428,-0.2379,-1.4217,8.4394,1.1975,-0.0576,0.4615,-1.0224,0.039,3.6736,8.9197,-0.3315,0.7965,-0.1545,0.0203,-4.5665,7.8389,-0.917243,0,1698371514,54
0.016,0.66,-0.4729,0.1182,-1.2794,-1.0476,-0.0777,-1.3785,8.1084,1.3644,-0.1925,0.4493,-1.0605,0.0528,3.6556,8.813,-0.2413,0.8367,-0.4111,-0.0387,-4.4974,7.7645,-0.935721,0,1698371514,55
0.0241,0.7385,-0.4654,0.3011,-1.3651,-1.0359,0.143,-1.439,7.974,1.1621,-0.3016,0.4365,-1.0705,0.0129,3.6426,8.6943,-0.1754,0.861,-0.6504,-0.1301,-4.4029,7.6963,-0.950072,0,1698371514,55
0.0329,0.826,-0.4554,0.4684,-1.3225,-1.0174,0.3741,-1.3751,7.8065,0.8743,-0.365,0.3839,-1.0604,-0.0736,3.6433,8.5891,-0.143,0.8774,-0.8857,-0.2373,-4.3047,7.6428,-0.96122,0,1698371514,56
0.0425,0.8674,-0.4434,0.6298,-1.0875,-1.1198,0.6004,-1.2881,7.8111,0.7181,-0.3656,0.2561,-1.0525,-0.189,3.6507,8.5362,-0.1485,0.8697,-1.1248,-0.3717,-4.2294,7.6138,-0.969878,0,1698371514,57
0.0528,0.8716,-0.4302,0.7885,-0.7472,-1.3008,0.7933,-1.403,8.1616,0.6582,-0.2937,0.0315,-1.0745,-0.3034,3.6645,8.5509,-0.1946,0.8032,-1.3615,-0.5375,-4.2079,7.6052,-0.976603,0,1698371514,58
0.0635,0.8723,-0.4162,0.9392,-0.3705,-1.2862,0.9491,-1.5986,8.348,0.5516,-0.1569,-0.2945,-1.1538,-0.3816,3.6921,8.6204,-0.2729,0.662,-1.5795,-0.6757,-4.2443,7.6191,-0.981827,0,1698371514,59
0.0741,0.9003,-0.402,1.08,0.0491,-1.3065,1.0283,-1.6357,8.3961,0.6457,0.0235,-0.6782,-1.3015,-0.4041,3.7335,8.7462,-0.367,0.48,-1.7659,-0.7608,-4.3424,7.6603,-0.985873,0,1698371514,60
0.0839,0.9362,-0.3889,1.1496,0.358,-1.3656,1.0251,-1.5289,8.8448,0.9107,0.2029,-1.0555,-1.509,-0.3759,3.7777,8.9293,-0.4529,0.2943,-1.909,-0.804,-4.4984,7.7351,-0.989005,0,1698371514,60
0.0924,0.9194,-0.3778,1.1224,0.5408,-1.2872,0.9561,-1.4415,9.4563,1.0038,0.3439,-1.3775,-1.7572,-0.3051,3.8172,9.115,-0.5043,0.121,-1.9954,-0.8134,-4.6721,7.844,-0.99144,0,1698371514,61
0.0993,0.8388,-0.3687,1.0337,0.6581,-1.1717,0.8548,-1.2902,9.8962,0.9296,0.4346,-1.6216,-2.0147,-0.2014,3.8432,9.2779,-0.5246,0.0018,-2.0293,-0.7906,-4.8248,7.9607,-0.993321,0,1698371514,62
0.1039,0.7257,-0.362,0.904,0.7091,-1.1127,0.7438,-1.1005,10.2412,0.8674,0.4949,-1.7243,-2.2403,-0.08,3.8763,9.4232,-0.5429,-0.0362,-2.0249,-0.7424,-4.9459,8.0881,-0.994748,0,1698371514,63
0.1067,0.6123,-0.3587,0.7242,0.9371,-1.2279,0.6174,-1.0846,10.2103,0.7435,0.5162,-1.7172,-2.3959,0.0515,3.9183,9.5572,-0.5682,-0.0113,-2.0113,-0.6875,-5.0402,8.2323,-0.995862,0,1698371514,64
0.1086,0.5039,-0.3588,0.5399,1.0204,-1.2859,0.5457,-1.2276,9.7242,0.6967,0.4918,-1.6707,-2.4572,0.1421,3.9488,9.6802,-0.6066,0.0243,-2.0118,-0.6468,-5.1161,8.3922,-0.996758,0,1698371514,64
0.11,0.4061,-0.3597,0.4214,0.9343,-1.2354,0.5088,-1.4627,9.2472,0.7343,0.4566,-1.6031,-2.4186,0.151,3.973,9.803,-0.668,0.0844,-2.0267,-0.6449,-5.1874,8.5655,-0.99745,0,1698371514,65
0.1107,0.3147,-0.3598,0.3441,0.968,-1.2849,0.4281,-1.7107,9.2324,0.6361,0.4566,-1.5838,-2.2992,0.0756,4.0049,9.9813,-0.7685,0.1778,-2.0493,-0.7166,-5.2756,8.7616,-0.997984,0,1698371514,66
0.1109,0.2463,-0.3596,0.2853,0.9848,-1.3898,0.3007,-1.9066,9.6515,0.6413,0.529,-1.637,-2.1647,-0.0431,4.0674,10.2371,-0.9232,0.2223,-2.089,-0.8332,-5.4133,8.9703,-0.998412,0,1698371514,67
0.1109,0.1962,-0.3593,0.2463,1.0353,-1.5164,0.1182,-2.0863,10.146,0.8432,0.6611,-1.7371,-2.1106,-0.1417,4.1293,10.5467,-1.1176,0.1751,-2.1395,-0.907,-5.6494,9.1648,-0.99876,0,1698371514,68
0.1107,0.1506,-0.3577,0.2387,1.1462,-1.6915,-0.1377,-2.3087,10.9585,1.1357,0.8029,-1.866,-2.1835,-0.2274,4.1742,10.8713,-1.3179,0.0626,-2.1736,-0.9103,-5.9787,9.3399,-0.999036,0,1698371514,69
0.1105,0.1198,-0.3537,0.2773,1.4555,-1.8999,-0.3843,-2.6953,11.4121,1.6385,0.9147,-2.019,-2.3714,-0.3124,4.2143,11.1989,-1.4932,0.0092,-2.1975,-0.8874,-6.3569,9.5053,-0.999251,0,1698371514,69
0.1097,0.0745,-0.3469,0.3805,1.47,-1.7226,-0.6047,-2.7238,11.2021,2.3177,0.9863,-2.1693,-2.6222,-0.4081,4.2343,11.5894,-1.6191,0.0684,-2.2536,-0.8756,-6.7456,9.707,-0.999418,0,1698371514,70
0.1068,-0.0387,-0.3387,0.4877,1.1506,-1.2935,-0.8637,-2.0044,11.7801,2.9604,1.0257,-2.2937,-2.8775,-0.5124,4.2603,12.0118,-1.6725,0.1194,-2.3713,-0.8618,-7.1108,9.9294,-0.999548,0,1698371514,71
0.1005,-0.199,-0.3314,0.5268,1.251,-1.1271,-1.1152,-1.319,12.7663,3.5618,1.023,-2.3657,-3.1226,-0.5359,4.293,12.3408,-1.5837,0.0909,-2.5283,-0.7852,-7.4591,10.112,-0.999643,0,1698371514,72
0.0911,-0.3679,-0.3259,0.5164,1.773,-1.0679,-1.3173,-0.9852,13.0854,3.7867,0.9144,-2.3474,-3.3181,-0.4563,4.2805,12.5431,-1.2948,0.0278,-2.6826,-0.632,-7.7722,10.2264,-0.998873,0,1698371514,73
0.0794,-0.5937,-0.3223,0.4646,2.0745,-1.0218,-1.4658,-0.7711,12.8469,3.5656,0.6682,-2.1747,-3.378,-0.3544,4.202,12.5698,-0.8148,0.0462,-2.8273,-0.476,-7.9766,10.2142,-0.99281,0,1698371514,74
0.0652,-0.8837,-0.3207,0.3919,2.0624,-1.0482,-1.518,-0.7209,12.2326,3.3166,0.3209,-1.848,-3.2822,-0.2905,4.0647,12.3907,-0.1965,0.1891,-2.9864,-0.3488,-8.0092,10.0694,-0.819643,0,1698371514,74
0.0476,-1.1091,-0.3192,0.3469,1.511,-0.8651,-1.453,-0.6631,12.1478,2.9476,-0.1252,-1.4306,-3.0782,-0.3013,3.9027,12.0251,0.4874,0.4169,-3.1953,-0.2512,-7.8601,9.7921,-0.494825,0,1698371514,75
0.0265,-1.3587,-0.3149,0.4144,0.9046,-0.7169,-1.2891,-0.782,12.4949,2.4396,-0.6745,-0.9462,-2.8218,-0.3559,3.69,11.4964,1.1925,0.6202,-3.4905,-0.1879,-7.579,9.361,-0.211724,0,1698371514,76
0.0034,-1.6215,-0.3066,0.5916,0.8912,-0.8821,-1.0314,-1.0447,11.7868,2.1911,-1.2341,-0.4481,-2.557,-0.4333,3.4152,10.8582,1.891,0.7193,-3.8501,-0.1585,-7.2276,8.8123,0.035445,0,1698371514,77
-0.0205,-1.7925,-0.2957,0.7602,0.9132,-1.0838,-0.6949,-1.1958,10.6686,2.2126,-1.7054,-0.0305,-2.3129,-0.5606,3.1437,10.1648,2.5587,0.8261,-4.1883,-0.1701,-6.8336,8.2055,0.250591,0,1698371514,78
-0.0448,-1.9583,-0.2832,0.9018,0.9806,-1.2907,-0.339,-1.5018,9.8399,2.3416,-2.0297,0.2205,-2.1353,-0.6891,2.8653,9.4963,3.1771,1.0761,-4.4313,-0.215,-6.4163,7.62,0.417909,0,1698371514,79
-0.0698,-2.0959,-0.2699,1.0299,0.9835,-1.4122,-0.025,-1.6746,9.2654,2.4289,-2.1538,0.2784,-2.0749,-0.7763,2.5755,8.9238,3.6643,1.4416,-4.575,-0.2934,-5.9912,7.0846,0.547872,0,1698371514,79
-0.094,-2.228,-0.2577,1.1003,0.8434,-1.4665,0.1976,-1.599,9.3158,2.5342,-2.0661,0.1963,-2.1448,-0.8478,2.3295,8.465,3.92,1.7741,-4.649,-0.4155,-5.5859,6.6072,0.648819,0,1698371514,80
-0.1169,-2.3316,-0.2471,1.109,0.744,-1.5641,0.3236,-1.5996,9.4164,2.655,-1.8088,0.0448,-2.3209,-0.9087,2.1639,8.1551,3.9149,1.9402,-4.6784,-0.5761,-5.2674,6.2551,0.727227,0,1698371514,81
-0.1394,-2.3344,-0.2381,1.0714,0.4912,-1.6296,0.3669,-1.4835,9.5499,2.5842,-1.4317,-0.1215,-2.5642,-0.9431,2.0695,8.0144,3.6808,1.9031,-4.6859,-0.7471,-5.086,6.0599,0.788129,0,1698371514,82
-0.1615,-2.3269,-0.2298,1.0277,0.2446,-1.7104,0.381,-1.3049,9.738,2.5896,-0.9684,-0.3078,-2.8418,-0.9803,2.0394,8.0366,3.2579,1.7951,-4.6491,-0.9163,-5.0199,6.0024,0.835428,0,1698371514,83
-0.1835,-2.3114,-0.2215,0.9834,0.0744,-1.7527,0.4013,-1.051,10.0012,2.5606,-0.4202,-0.564,-3.1409,-1.0135,2.0479,8.206,2.6908,1.7691,-4.5234,-1.0936,-5.0848,6.0873,0.872095,0,1698371514,83
-0.2054,-2.2584,-0.2128,0.9711,-0.1039,-1.7284,0.4162,-0.6584,10.2217,2.5176,0.188,-0.8654,-3.4449,-1.0136,2.0691,8.4711,2.0491,1.812,-4.286,-1.2335,-5.2871,6.2747,0.900418,0,1698371514,84
-0.2275,-2.2594,-0.2036,0.9904,-0.2048,-1.701,0.4414,-0.2545,10.2603,2.61,0.7329,-1.1446,-3.7423,-0.9821,2.1517,8.8313,1.3957,1.7745,-3.9482,-1.2997,-5.5548,6.5314,0.922363,0,1698371514,85
-0.2484,-2.2949,-0.194,1.0105,-0.3233,-1.6073,0.4908,0.1762,10.1549,2.7545,1.1143,-1.3581,-4.0168,-0.8909,2.2992,9.2495,0.7961,1.552,-3.7736,-1.299,-5.8473,6.8312,0.937723,0,1698371514,86
-0.2677,-2.2323,-0.1842,1.0047,-0.3966,-1.4673,0.5786,0.5573,9.8551,2.8403,1.2955,-1.4583,-4.2291,-0.7537,2.4653,9.6406,0.315,1.1201,-3.5604,-1.2118,-6.1041,7.1278,0.873968,0,1698371514,87
-0.2861,-2.0688,-0.1742,0.9876,-0.4083,-1.2903,0.7201,0.7803,9.6159,2.7789,1.2658,-1.4372,-4.3497,-0.5862,2.6219,9.9634,-0.0041,0.5691,-3.1656,-1.0591,-6.291,7.3709,0.647907,0,1698371514,88
-0.3033,-1.9301,-0.1636,1.0001,-0.414,-1.019,0.9016,0.895,9.363,2.7018,1.0715,-1.288,-4.3625,-0.3637,2.6997,10.182,-0.1761,0.0481,-2.8939,-0.8753,-6.4247,7.5074,0.389907,0,1698371514,88
-0.3188,-1.8488,-0.153,1.023,-0.41,-0.6907,1.109,0.9272,9.1732,2.6277,0.8055,-1.028,-4.2735,-0.1186,2.6917,10.2968,-0.245,-0.342,-2.7374,-0.6764,-6.4831,7.5701,0.320626,0,1698371514,89
-0.3317,-1.747,-0.1435,1.0179,-0.3931,-0.3871,1.3315,0.8728,9.2482,2.5331,0.5469,-0.7068,-4.0945,0.0843,2.6328,10.3231,-0.2277,-0.5606,-2.6789,-0.4848,-6.4707,7.5838,0.42161,0,1698371514,90
-0.3428,-1.6141,-0.1336,0.9965,-0.3179,-0.1292,1.5324,0.7961,9.311,2.4293,0.3043,-0.3388,-3.8353,0.237,2.5222,10.2553,-0.1453,-0.6666,-2.6863,-0.3084,-6.4213,7.5351,0.547277,0,1698371514,91
-0.3536,-1.4848,-0.1232,1.0154,-0.2407,0.084,1.6962,0.6437,9.2758,2.3624,0.0997,0.0271,-3.5283,0.321,2.3977,10.0792,-0.0225,-0.6679,-2.7167,-0.1786,-6.3217,7.4363,0.648312,0,1698371514,92
-0.3632,-1.3631,-0.1139,1.0233,-0.1338,0.2171,1.8412,0.4016,9.2095,2.3294,-0.026,0.3224,-3.2208,0.3351,2.2936,9.8288,0.142,-0.5326,-2.7489,-0.1045,-6.182,7.3038,0.726834,0,1698371514,93
-0.3718,-1.2669,-0.1047,0.999,-0.1037,0.3061,1.9565,0.181,9.2419,2.2297,-0.0734,0.5049,-2.9436,0.3127,2.2188,9.5665,0.3191,-0.257,-2.7364,-0.0734,-6.0329,7.1535,0.787824,0,1698371514,93
-0.3823,-1.1677,-0.0932,0.9749,-0.1442,0.359,2.0409,0.0516,9.3149,2.0512,-0.0641,0.5836,-2.707,0.2864,2.1618,9.3159,0.4558,0.0831,-2.633,-0.0829,-5.8813,6.9991,0.835193,0,1698371514,94
-0.3919,-1.0709,-0.0821,0.9463,-0.2174,0.3507,2.0919,-0.0695,9.3537,1.8664,-0.022,0.585,-2.5198,0.2802,2.1277,9.0954,0.5254,0.4061,-2.4256,-0.1259,-5.7304,6.8545,0.871983,0,1698371514,95
-0.3983,-0.9788,-0.074,0.8961,-0.3348,0.3135,2.1018,-0.2055,9.3245,1.7036,0.032,0.5444,-2.3719,0.2925,2.1127,8.9262,0.5189,0.7286,-2.1155,-0.1937,-5.5956,6.7321,0.900561,0,1698371514,96
-0.4036,-0.8983,-0.0667,0.864,-0.247,0.2719,2.0898,-0.2877,9.2056,1.6006,0.0833,0.5035,-2.2322,0.3314,2.0939,8.7996,0.4347,1.0617,-1.7348,-0.2569,-5.4799,6.64,0.922759,0,1698371514,97
-0.408,-0.814,-0.0592,0.879,-0.3586,0.2583,2.032,-0.2483,9.1967,1.5164,0.1385,0.4794,-2.0795,0.3889,2.0714,8.7163,0.2951,1.3,-1.3471,-0.2874,-5.398,6.5783,0.940002,0,1698371514,98
-0.4113,-0.7056,-0.0519,0.8722,-0.7086,0.2213,1.9086,-0.1009,9.2725,1.4408,0.201,0.4692,-1.9037,0.4413,2.0492,8.6903,0.1287,1.4093,-0.9846,-0.2714,-5.3558,6.5467,0.953373,0,1698371514,98
-0.4133,-0.5837,-0.0455,0.8125,-0.9421,0.1346,1.7421,0.0101,9.3256,1.3655,0.2572,0.4783,-1.7041,0.4858,2.0376,8.7062,-0.0398,1.5299,-0.6459,-0.2188,-5.3564,6.5438,0.963341,0,1698371514,99
-0.414,-0.4583,-0.0392,0.7562,-1.1252,0.0596,1.571,0.0129,9.1266,1.3118,0.2932,0.5126,-1.4954,0.527,2.0269,8.757,-0.168,1.6773,-0.3462,-0.1406,-5.4083,6.5792,0.960257,0,1698371514,0
-0.414,-0.3557,-0.0321,0.7339,-1.3654,0.0397,1.381,0.0766,9.155,1.2025,0.31,0.5657,-1.2864,0.5502,2.0179,8.8214,-0.2114,1.7202,-0.1364,-0.0391,-5.4691,6.6517,0.940567,0,1698371514,1
-0.4138,-0.2799,-0.0254,0.7309,-1.656,0.0618,1.1618,0.2177,9.3589,1.0767,0.324,0.63,-1.073,0.5527,2.0074,8.881,-0.188,1.6513,-0.0008,0.0431,-5.5438,6.7178,0.926831,0,1698371514,2
-0.4136,-0.2108,-0.0192,0.7108,-1.9191,0.0934,0.9294,0.3468,9.5025,0.9667,0.3485,0.6969,-0.8552,0.5367,1.9957,8.9425,-0.1383,1.608,0.1072,0.0859,-5.6337,6.771,0.922229,0,1698371514,2
-0.4132,-0.1521,-0.013,0.667,-2.2377,0.1298,0.6449,0.4522,9.6574,0.7944,0.3845,0.7566,-0.6349,0.4987,2.0008,8.998,-0.0639,1.5888,0.1885,0.1087,-5.6987,6.8223,0.921931,0,1698371514,3
-0.4127,-0.0969,-0.0073,0.649,-2.5824,0.2144,0.3668,0.4619,9.7948,0.7071,0.4296,0.797,-0.4204,0.4389,2.0184,9.0307,0.0228,1.5348,0.2524,0.1317,-5.7364,6.8658,0.93119,0,1698371514,4
-0.4104,-0.0136,-0.0018,0.6494,-3.035,0.5094,0.0971,0.7669,9.669,1.0886,0.491,0.8019,-0.229,0.3762,2.0161,9.0468,0.1345,1.4672,0.2979,0.1376,-5.779,6.881,0.944203,0,1698371514,5
-0.4053,0.1113,0.0032,0.6192,-3.4785,0.7061,-0.2104,1.1885,9.6386,1.5257,0.5651,0.7691,-0.0505,0.3192,1.9883,9.0702,0.2631,1.367,0.3511,0.0948,-5.8255,6.8729,0.956405,0,1698371514,6
-0.3973,0.3108,0.0076,0.5635,-3.495,0.6236,-0.4961,1.1257,9.5389,1.6271,0.6457,0.7062,0.123,0.2613,1.9288,9.1055,0.3663,1.2218,0.4324,0.0146,-5.8602,6.8611,0.965919,0,1698371514,6
-0.386,0.5306,0.0119,0.5485,-3.2555,0.6448,-0.7418,1.0273,8.9068,1.711,0.7321,0.6163,0.2894,0.2211,1.8665,9.1434,0.426,1.0443,0.5357,-0.0878,-5.9049,6.858,0.973153,0,1698371514,7
-0.3718,0.7585,0.0169,0.5857,-3.0056,0.7602,-0.9293,1.0804,8.449,1.8039,0.8146,0.515,0.4637,0.2062,1.8345,9.1958,0.4264,0.8425,0.6534,-0.2107,-5.9556,6.8799,0.978637,0,1698371514,8
-0.3562,0.9545,0.0226,0.617,-2.6385,0.8651,-1.0622,1.0038,8.3411,1.7929,0.8983,0.4142,0.6554,0.1989,1.8139,9.2797,0.3713,0.5767,0.7678,-0.3513,-6.022,6.9336,0.982394,0,1698371514,9
-0.3398,1.0855,0.0281,0.6139,-2.0815,0.9483,-1.1491,0.8388,8.298,1.7069,0.9837,0.318,0.875,0.1805,1.8147,9.3768,0.274,0.2203,0.8712,-0.4808,-6.1029,7.0132,0.984434,0,1698371514,10
-0.3233,1.1757,0.0332,0.592,-1.4239,0.9745,-1.1886,0.7015,8.125,1.7441,1.0594,0.2364,1.1257,0.1452,1.8554,9.4912,0.1558,-0.1998,0.9728,-0.5528,-6.1874,7.1072,0.985623,0,1698371514,10
-0.3079,1.232,0.0385,0.573,-0.839,0.9762,-1.1826,0.57,8.0676,1.8323,1.114,0.1722,1.3929,0.0995,1.9413,9.6463,0.0358,-0.6419,1.0832,-0.5528,-6.2852,7.2229,0.986853,0,1698371514,11
-0.2943,1.2667,0.0435,0.5464,-0.3668,0.9553,-1.1498,0.4491,8.3378,1.7981,1.1428,0.1139,1.654,0.0537,2.0508,9.8227,-0.0795,-1.0365,1.215,-0.504,-6.3849,7.3486,0.987667,0,1698371514,12
-0.2841,1.1762,0.0473,0.5005,0.1415,0.9255,-1.1116,0.3678,8.3259,1.9149,1.1506,0.06,1.891,0.0153,2.1746,9.9947,-0.1691,-1.3481,1.3668,-0.4099,-6.4631,7.4705,0.988938,0,1698371514,13
-0.2782,0.9744,0.0504,0.4479,0.4732,0.8716,-1.0682,0.2766,8.4142,2.1456,1.132,0.0233,2.093,-0.0304,2.3068,10.1558,-0.2301,-1.5986,1.5103,-0.2743,-6.5161,7.5743,0.991176,0,1698371514,14
-0.2765,0.763,0.0532,0.4054,0.5817,0.7846,-0.9979,0.1841,9.1932,2.072,1.0834,-0.0061,2.2473,-0.0843,2.4429,10.2997,-0.2835,-1.8239,1.6098,-0.1256,-6.5544,7.6697,0.993138,0,1698371514,15
-0.277,0.581,0.0554,0.3638,0.9997,0.7573,-0.8396,0.0884,9.4963,1.4219,0.9209,-0.0527,2.4181,-0.1778,2.6669,10.5248,-0.4206,-1.88,1.6881,0.1241,-6.5461,7.8525,0.994667,0,1698371514,15
-0.2774,0.4395,0.0571,0.3065,0.9997,0.7573,-0.8396,0.0884,9.4963,1.4219,0.9209,-0.0527,2.4181,-0.1778,2.6669,10.5248,-0.4206,-1.88,1.6881,0.1241,-6.5461,7.8525,0.995857,0,1698371514,16
-0.2773,0.3267,0.0578,0.2337,1.2235,0.8697,-0.6957,0.4616,9.966,1.1041,0.7726,-0.2578,2.4505,-0.2369,2.7819,10.6964,-0.6212,-1.3796,1.654,0.0609,-6.5989,8.0839,0.996782,0,1698371514,17
-0.2771,0.2472,0.0577,0.1818,1.2676,0.9757,-0.6029,0.6688,10.2005,1.0845,0.7795,-0.4213,2.4414,-0.1904,2.8427,10.8,-0.7526,-1.1331,1.6567,-0.0775,-6.6582,8.2368,0.9975,0,1698371515,18
-0.2768,0.2023,0.0577,0.1481,1.3342,1.1433,-0.4737,0.8309,10.5464,1.2077,0.8395,-0.5994,2.4463,-0.1056,2.9164,10.9238,-0.9092,-0.9851,1.7133,-0.2545,-6.7658,8.4269,0.998058,0,1698371515,19
-0.2755,0.2145,0.0575,0.11,1.2386,1.3928,-0.3921,0.9901,10.8761,1.6776,0.9347,-0.7514,2.4783,0.0056,3.0249,11.0934,-1.0692,-1.0039,1.8203,-0.4398,-6.8926,8.6641,0.998492,0,1698371515,19
-0.2712,0.2926,0.0568,0.0438,1.0629,1.543,-0.3066,1.0369,11.0691,2.3205,1.0469,-0.8362,2.5525,0.1129,3.1939,11.3273,-1.2181,-1.143,1.9758,-0.6129,-7.032,8.9572,0.998829,0,1698371515,20
-0.2633,0.4162,0.0544,-0.0716,1.0516,1.5371,-0.1848,0.9056,11.4804,2.8605,1.1554,-0.8458,2.6732,0.1604,3.4161,11.5894,-1.3688,-1.3737,2.1989,-0.7631,-7.1804,9.2885,0.99909,0,1698371515,21
-0.2533,0.5632,0.0487,-0.2254,1.1963,1.512,-0.0356,0.5663,11.9645,3.4051,1.2303,-0.7459,2.813,0.1764,3.6344,11.824,-1.5071,-1.7327,2.4728,-0.8613,-7.3291,9.5984,0.999293,0,1698371515,22
-0.243,0.6775,0.0394,-0.4482,1.4468,1.478,0.2618,0.0855,11.9986,3.9221,1.2263,-0.5627,2.9523,0.2052,3.8643,11.9639,-1.5396,-2.0976,2.8082,-0.8401,-7.4568,9.8205,0.99945,0,1698371515,23
-0.2342,0.7206,0.0271,-0.7112,1.5859,1.34,0.5499,-0.2509,11.9311,4.0791,1.097,-0.33,3.1014,0.2339,4.1215,11.9847,-1.4565,-2.3529,3.1863,-0.6822,-7.4871,9.9043,0.999573,0,1698371515,23
-0.229,0.6581,0.0122,-0.9702,1.7297,1.1314,0.8503,-0.6484,12.0147,3.7406,0.81,-0.0087,3.2955,0.2148,4.3324,11.8721,-1.2932,-2.4618,3.5158,-0.4607,-7.3486,9.8493,0.999668,0,1698371515,24
-0.2279,0.5247,-0.0056,-1.2536,1.8611,1.0955,1.134,-0.9112,11.5739,3.3868,0.3817,0.4054,3.5554,0.1263,4.4327,11.6033,-1.0428,-2.3682,3.7632,-0.2538,-7.0452,9.6636,0.999742,0,1698371515,25
-0.2282,0.421,-0.0258,-1.5554,1.9162,1.0531,1.2835,-0.9278,11.161,3.4335,-0.1419,0.8855,3.8562,0.0139,4.4448,11.1827,-0.7281,-2.0859,3.9179,-0.1106,-6.6304,9.3176,0.9998,0,1698371515,26
-0.2266,0.3804,-0.0483,-1.8082,2.1082,0.8412,1.2668,-1.0031,10.639,3.4435,-0.7258,1.3522,4.1477,-0.0878,4.4051,10.648,-0.4044,-1.6399,3.9869,-0.0642,-6.1444,8.8519,0.999845,0,1698371515,27
-0.2216,0.4307,-0.0728,-2.0233,2.1397,0.7763,1.0816,-0.943,9.5408,3.2306,-1.3592,1.6746,4.4048,-0.1714,4.2873,10.0656,-0.1155,-1.0447,4.0072,-0.1389,-5.6392,8.3519,0.999879,0,1698371515,27
-0.213,0.5326,-0.0986,-2.2339,1.7313,0.9586,0.7955,-0.6421,9.0956,3.0086,-1.9585,1.758,4.6224,-0.22,4.0997,9.4949,0.1311,-0.4256,3.9787,-0.3139,-5.1695,7.8663,0.999906,0,1698371515,28
-0.2019,0.6717,-0.1247,-2.4111,1.3706,1.1734,0.494,-0.3111,8.771,3.0127,-2.3806,1.7171,4.8085,-0.2559,3.8903,8.9826,0.3302,0.0357,3.9038,-0.5542,-4.7528,7.4306,0.999927,0,1698371515,29
-0.1907,0.7839,-0.1502,-2.441,1.1032,1.279,0.265,-0.0968,8.5546,3.1117,-2.5712,1.7075,4.9684,-0.3067,3.7084,8.577,0.4568,0.3506,3.8276,-0.8509,-4.4174,7.0906,0.999943,0,1698371515,30
-0.1804,0.8026,-0.1747,-2.3464,0.9117,1.2714,0.0896,-0.0832,8.6811,3.0501,-2.5488,1.7495,5.0849,-0.3775,3.5856,8.3022,0.481,0.492,3.7787,-1.1799,-4.2021,6.8663,0.999956,0,1698371515,31
-0.171,0.7998,-0.1992,-2.3121,0.6717,1.3653,-0.0091,-0.249,8.6479,2.8726,-2.2996,1.8102,5.1447,-0.4739,3.5174,8.165,0.4129,0.4007,3.7569,-1.4957,-4.1179,6.7383,0.999966,0,1698371515,31
-0.1627,0.7757,-0.2225,-2.294,0.3269,1.4732,-0.0551,-0.5115,8.7498,2.77,-1.8377,1.8284,5.1298,-0.611,3.4715,8.1392,0.2432,0.1466,3.7741,-1.7436,-4.1501,6.7453,0.999973,0,1698371515,32
-0.1552,0.7773,-0.2436,-2.263,0.1536,1.4274,-0.1173,-0.8415,8.9493,2.7615,-1.2573,1.7309,5.0108,-0.8036,3.4617,8.2191,-0.0232,-0.182,3.859,-1.8822,-4.2791,6.8961,0.999977,0,1698371515,33
-0.1479,0.8026,-0.2643,-2.2593,0.0233,1.3569,-0.209,-1.2088,9.1849,2.6842,-0.6539,1.5043,4.7557,-1.0313,3.5254,8.4003,-0.3325,-0.5548,4.0196,-1.9056,-4.4953,7.1303,0.999848,0,1698371515,34
-0.1401,0.8144,-0.2845,-2.2678,-0.043,1.2349,-0.3169,-1.6338,9.447,2.577,-0.0455,1.2329,4.3564,-1.2321,3.6311,8.6277,-0.6502,-0.9526,4.2303,-1.8244,-4.7749,7.4165,0.999568,0,1698371515,35
-0.1314,0.8393,-0.305,-2.2757,-0.043,1.2349,-0.3169,-1.6338,9.447,2.577,-0.0455,1.2329,4.3564,-1.2321,3.6311,8.6277,-0.6502,-0.9526,4.2303,-1.8244,-4.7749,7.4165,0.996871,0,1698371515,35
-0.1214,0.8629,-0.3252,-2.2274,-0.0911,1.1077,-0.4646,-2.0425,9.7506,2.4036,0.4909,0.9709,3.8357,-1.3603,3.7642,8.8895,-0.9242,-1.2608,4.4503,-1.6458,-5.0635,7.7186,0.941475,0,1698371515,36
-0.1113,0.8657,-0.343,-2.1057,0.0711,0.6805,-0.9004,-2.2587,9.5028,2.2696,0.8128,0.3238,2.6654,-1.2621,3.9756,9.3283,-1.1649,-1.4988,4.7146,-1.0451,-5.4549,8.1664,0.743529,0,1698371515,37
-0.1009,0.8919,-0.3583,-1.9379,0.226,0.4112,-1.1274,-2.2467,9.2716,2.2039,0.7495,0.0305,2.2181,-1.0552,4.0267,9.4287,-1.1331,-1.4311,4.7481,-0.7393,-5.5459,8.2864,0.519575,0,1698371515,38
-0.0905,0.9353,-0.3708,-1.7504,0.4757,0.0998,-1.3072,-2.1818,8.9777,2.1894,0.6261,-0.1633,1.8886,-0.8105,4.025,9.4604,-1.0343,-1.208,4.7007,-0.4526,-5.5415,8.3262,0.378455,0,1698371515,39
-0.0812,0.9383,-0.381,-1.5596,0.7004,-0.2359,-1.4588,-2.0469,8.9619,2.1635,0.4758,-0.2405,1.6786,-0.5689,3.9964,9.4329,-0.8877,-0.9001,4.5438,-0.2268,-5.4448,8.305,0.267241,0,1698371515,40
-0.0725,0.9312,-0.3898,-1.4048,0.9482,-0.5494,-1.5834,-1.9911,9.0576,2.0915,0.3368,-0.1743,1.5777,-0.3379,3.9758,9.3512,-0.7201,-0.5817,4.2788,-0.1002,-5.2615,8.2391,0.180633,0,1698371515,40
-0.0641,0.9322,-0.3984,-1.3208,1.2899,-0.793,-1.6784,-1.967,8.7591,2.0278,0.2255,0.0177,1.5582,-0.1355,3.9493,9.2315,-0.5567,-0.3327,3.9425,-0.0535,-5.0485,8.1331,0.112839,0,1698371515,41
-0.056,0.9094,-0.4072,-1.2739,1.4299,-0.9523,-1.7173,-1.6401,8.1148,2.1948,0.139,0.2793,1.5899,0.0142,3.8914,9.1036,-0.4239,-0.1299,3.5987,-0.064,-4.8703,7.9823,0.050745,0,1698371515,42
-0.0481,0.8851,-0.4161,-1.2432,1.2652,-1.0607,-1.7492,-1.2894,8.2759,2.2949,0.0804,0.5438,1.6307,0.0969,3.8365,8.9695,-0.3496,0.0362,3.2924,-0.1155,-4.7195,7.8128,0.060398,0,1698371515,43
-0.0408,0.8566,-0.4252,-1.1977,1.0179,-1.1142,-1.9913,-1.1247,8.8444,2.1201,0.0527,0.7664,1.6436,0.1164,3.8021,8.8442,-0.3346,0.1259,3.0409,-0.175,-4.5936,7.6697,0.079966,0,1698371515,44
-0.0344,0.8165,-0.4341,-1.1576,0.7466,-1.1661,-2.1333,-0.992,9.1786,1.8693,0.0611,0.9239,1.6059,0.0864,3.7861,8.7365,-0.3732,0.1897,2.854,-0.2182,-4.4947,7.5457,0.037413,0,1698371515,44
-0.0286,0.7523,-0.4427,-1.128,0.535,-1.2779,-1.9735,-1.0279,9.2435,1.7558,0.1204,0.9857,1.4932,0.0281,3.7443,8.66,-0.45,0.2622,2.7174,-0.2435,-4.4222,7.436,0.00271,0,1698371515,45
-0.0233,0.6661,-0.4509,-1.0863,0.2514,-1.3281,-1.8101,-1.1857,9.1668,1.6671,0.227,0.9443,1.3033,-0.0381,3.7001,8.6166,-0.5387,0.3245,2.6062,-0.256,-4.3886,7.3604,-0.104354,0,1698371515,46
-0.0185,0.6101,-0.4586,-1.0389,-0.1113,-1.287,-1.6611,-1.2735,9.3247,1.4617,0.3498,0.8345,1.0621,-0.0852,3.7002,8.6142,-0.6169,0.3695,2.4968,-0.2635,-4.389,7.3261,-0.286812,0,1698371515,47
-0.0143,0.5574,-0.4651,-0.9455,-0.4057,-1.2423,-1.4916,-1.3166,9.3319,1.3729,0.4554,0.716,0.7989,-0.0881,3.7032,8.6565,-0.6632,0.4266,2.3582,-0.2603,-4.4029,7.3354,-0.446017,0,1698371515,48
-0.0105,0.5038,-0.47,-0.8265,-0.695,-1.2007,-1.314,-1.3639,9.2328,1.3799,0.529,0.6121,0.5442,-0.0518,3.7178,8.7168,-0.6744,0.471,2.1755,-0.2481,-4.4257,7.3596,-0.569705,0,1698371515,48
-0.0065,0.4816,-0.474,-0.7247,-1.0031,-1.1131,-1.1164,-1.3694,9.0395,1.3575,0.5631,0.5365,0.3208,-0.0068,3.7666,8.7901,-0.6567,0.4926,1.9415,-0.243,-4.472,7.4112,-0.665777,0,1698371515,49
-0.0019,0.4888,-0.4763,-0.6061,-1.2016,-1.0586,-0.9041,-1.3716,8.8952,1.3379,0.541,0.5127,0.1379,0.0337,3.8283,8.8623,-0.6183,0.5231,1.6704,-0.2277,-4.5233,7.482,-0.740399,0,1698371515,50
0.0025,0.5027,-0.4765,-0.4533,-1.3497,-1.0445,-0.6949,-1.3839,8.9823,1.2274,0.4514,0.5393,-0.0059,0.0812,3.8904,8.9141,-0.5765,0.5476,1.3702,-0.1884,-4.5582,7.5571,-0.79836,0,1698371515,51
0.0071,0.5039,-0.4758,-0.324,-1.504,-1.0019,-0.4966,-1.3893,9.2033,1.1016,0.2991,0.6001,-0.1201,0.1278,3.9488,8.9479,-0.5389,0.5777,1.0596,-0.1402,-4.5747,7.641,-0.843381,0,1698371515,52
0.0125,0.5129,-0.4749,-0.209,-1.4279,-1.2305,-0.3357,-1.36,9.2946,1.2378,0.1016,0.6848,-0.2122,0.1669,3.9826,8.9472,-0.5037,0.6386,0.768,-0.1006,-4.5667,7.691,-0.878349,0,1698371515,52
0.0186,0.5328,-0.4725,-0.0732,-1.4497,-1.3782,-0.1392,-1.2651,8.8015,1.3653,-0.1217,0.7923,-0.288,0.1962,3.9915,8.9009,-0.4705,0.7055,0.4998,-0.0838,-4.5337,7.6986,-0.90551,0,1698371515,53
0.025,0.5372,-0.4678,0.1079,-1.7171,-1.2194,0.1216,-1.1767,8.2058,1.2585,-0.3454,0.9159,-0.341,0.1973,3.9832,8.8046,-0.4301,0.7839,0.2454,-0.1006,-4.4765,7.678,-0.926601,0,1698371515,54
0.0319,0.5544,-0.4604,0.3099,-1.7536,-1.1446,0.4069,-1.1112,7.7593,1.1574,-0.5421,1.0375,-0.3625,0.1524,3.9696,8.6827,-0.3818,0.8874,-0.0041,-0.1484,-4.3928,7.6478,-0.942899,0,1698371515,55
0.0394,0.5907,-0.4502,0.4795,-1.551,-1.1487,0.6992,-1.1451,7.3273,1.0975,-0.695,1.1285,-0.3502,0.0462,3.9771,8.5768,-0.3459,1.001,-0.2747,-0.234,-4.2955,7.63,-0.955229,0,1698371515,56
0.0474,0.6529,-0.4378,0.658,-1.2522,-1.2022,0.9604,-1.2486,7.0599,1.0264,-0.7788,1.1455,-0.3194,-0.1314,4.022,8.513,-0.347,1.0867,-0.5828,-0.3504,-4.2031,7.6461,-0.964313,0,1698371515,56
0.0561,0.7304,-0.4237,0.8548,-0.9186,-1.2813,1.1802,-1.3336,6.9602,1.0218,-0.7731,1.0368,-0.3133,-0.3386,4.0911,8.5124,-0.399,1.0995,-0.9074,-0.4948,-4.1462,7.669,-0.971702,0,1698371515,57
0.0654,0.7711,-0.4086,1.0428,-0.5062,-1.5369,1.3169,-1.4854,7.7017,0.9473,-0.6954,0.7786,-0.3768,-0.5137,4.1517,8.5688,-0.4871,1.0337,-1.237,-0.6484,-4.1627,7.6938,-0.978019,0,1698371515,58
0.0752,0.7775,-0.3925,1.2,0.1073,-1.7517,1.4291,-1.7979,8.3971,0.9787,-0.5788,0.3735,-0.5446,-0.6275,4.2044,8.6848,-0.5718,0.9042,-1.5544,-0.772,-4.2592,7.7402,-0.982921,0,1698371515,59
0.084,0.767,-0.3783,1.2387,0.7577,-1.8206,1.5392,-2.0382,8.4043,1.1739,-0.4474,-0.1338,-0.8189,-0.67,4.2453,8.8476,-0.6281,0.7379,-1.8231,-0.865,-4.4093,7.8042,-0.986726,0,1698371515,60
0.0911,0.762,-0.3671,1.1712,1.1504,-1.9081,1.5463,-1.9001,8.6589,1.2881,-0.3095,-0.6692,-1.1717,-0.657,4.2571,9.0299,-0.654,0.5909,-2.0275,-0.9154,-4.5742,7.8821,-0.989688,0,1698371515,60
0.0971,0.7193,-0.358,1.066,1.3173,-1.8935,1.4769,-1.5959,9.178,1.2956,-0.1768,-1.1729,-1.5651,-0.6089,4.2766,9.2126,-0.669,0.4656,-2.1752,-0.9168,-4.7301,7.9838,-0.991988,0,1698371515,61
0.1011,0.6276,-0.3526,0.9012,1.603,-2.0184,1.3743,-1.5697,10.0359,1.1236,-0.0669,-1.6016,-1.9626,-0.5371,4.338,9.3803,-0.7036,0.3862,-2.2738,-0.8818,-4.859,8.111,-0.993766,0,1698371515,62
0.103,0.5308,-0.3512,0.7058,1.8853,-2.1223,1.2317,-1.7799,10.5832,0.7626,0.0116,-1.915,-2.349,-0.4228,4.378,9.5334,-0.7553,0.3799,-2.3512,-0.8384,-4.982,8.2308,-0.995113,0,1698371515,63
0.1044,0.4492,-0.3517,0.5339,1.8226,-2.0078,1.0237,-1.7858,10.4669,0.413,0.0598,-2.0979,-2.6891,-0.2645,4.3668,9.7083,-0.7937,0.3912,-2.4488,-0.8225,-5.1516,8.3637,-0.996096,0,1698371515,64
0.1057,0.3839,-0.3527,0.3984,1.6392,-1.9445,0.7556,-1.5927,10.5938,0.217,0.1126,-2.1923,-2.9337,-0.1133,4.3736,9.9539,-0.809,0.3557,-2.5936,-0.8465,-5.3539,8.5228,-0.996746,0,1698371515,65
0.1071,0.3332,-0.3534,0.3018,1.5837,-1.8749,0.475,-1.4028,10.7779,0.1913,0.2056,-2.2213,-3.0717,-0.0054,4.3962,10.2581,-0.8235,0.2352,-2.7879,-0.8911,-5.5592,8.6924,-0.997184,0,1698371515,65
0.108,0.2767,-0.3535,0.2437,1.5593,-1.7628,0.1913,-1.2938,10.9629,0.3118,0.317,-2.2446,-3.1542,0.0589,4.4069,10.6121,-0.8713,0.0462,-2.9959,-0.9014,-5.7977,8.8623,-0.997421,0,1698371515,66
0.1082,0.203,-0.3532,0.2009,1.4773,-1.6494,-0.121,-1.2524,11.4417,0.518,0.424,-2.2687,-3.2438,0.1088,4.4026,10.9711,-0.9503,-0.156,-3.1805,-0.8667,-6.0955,9.0373,-0.99765,0,1698371515,67
0.1081,0.1464,-0.3522,0.213,1.3735,-1.5485,-0.4709,-1.2451,12.206,0.7813,0.4849,-2.2704,-3.3629,0.1668,4.3779,11.2724,-1.021,-0.3165,-3.3299,-0.8196,-6.433,9.2083,-0.998001,0,1698371515,68
0.1078,0.1071,-0.349,0.2696,1.3893,-1.4513,-0.7871,-1.4573,12.6727,1.1227,0.488,-2.2658,-3.4928,0.2007,4.3288,11.5513,-1.0648,-0.3968,-3.4638,-0.7933,-6.7736,9.3675,-0.997458,0,1698371515,69
0.1074,0.0734,-0.3439,0.3303,1.3955,-1.2097,-1.0565,-1.5949,12.4592,1.5939,0.4801,-2.2357,-3.61,0.1941,4.2751,11.8256,-1.0835,-0.391,-3.5916,-0.8145,-7.0885,9.531,-0.99558,0,1698371515,69
0.106,0.0109,-0.3383,0.394,1.6654,-1.1354,-1.3263,-1.7813,12.4059,2.0735,0.4697,-2.1919,-3.7146,0.1818,4.2404,12.0697,-1.064,-0.3542,-3.6935,-0.8686,-7.3758,9.6826,-0.99271,0,1698371515,70
0.1025,-0.0853,-0.3337,0.4198,2.0804,-1.0282,-1.5528,-1.8035,12.446,2.2253,0.4097,-2.1204,-3.7703,0.146,4.2126,12.2163,-0.9678,-0.3733,-3.7786,-0.8906,-7.6388,9.7806,-0.985213,0,1698371515,71
0.0958,-0.2248,-0.3299,0.4063,2.13,-0.7081,-1.6769,-1.6141,12.1751,2.1975,0.2557,-1.9737,-3.7283,0.0677,4.1926,12.1834,-0.7713,-0.4375,-3.8413,-0.8628,-7.8289,9.8094,-0.944377,0,1698371515,72
0.086,-0.4482,-0.326,0.4008,2.1532,-0.5796,-1.6897,-1.5913,11.5042,2.4055,0.0065,-1.7362,-3.5918,-0.0273,4.129,11.981,-0.4746,-0.4644,-3.884,-0.8153,-7.8937,9.743,-0.755377,0,1698371515,73
0.0732,-0.6611,-0.3217,0.4087,2.1304,-0.5139,-1.5982,-1.553,10.9869,2.54,-0.308,-1.4341,-3.3903,-0.1142,3.9759,11.6655,-0.0891,-0.4333,-3.9359,-0.745,-7.8376,9.546,-0.424359,0,1698371515,73
0.0571,-0.8825,-0.3164,0.4577,2.0581,-0.4654,-1.3934,-1.6884,10.7638,2.5064,-0.6776,-1.104,-3.1443,-0.2098,3.7321,11.1978,0.1814,-0.306,-4.0086,-0.6471,-7.6843,9.2391,-0.109058,0,1698371515,74
0.0376,-1.1888,-0.309,0.5654,2.0198,-0.4823,-1.1039,-1.8289,10.11,2.5265,-1.0882,-0.7692,-2.8842,-0.3335,3.449,10.6164,0.6216,-0.1126,-4.1162,-0.5352,-7.4406,8.8069,0.137484,0,1698371515,75
0.0158,-1.4612,-0.2994,0.6861,1.6058,-0.538,-0.8245,-1.6071,9.5952,2.4715,-1.5231,-0.418,-2.6336,-0.4809,3.1959,10.0235,1.3947,0.0947,-4.2706,-0.4433,-7.1182,8.2924,0.329975,0,1698371515,76
-0.0076,-1.611,-0.2881,0.8041,1.1955,-0.6707,-0.5504,-1.3119,9.2459,2.5149,-1.9597,-0.1077,-2.4133,-0.6461,2.9491,9.4389,2.1281,0.3529,-4.4765,-0.3769,-6.736,7.7712,0.47957,0,1698371515,77
-0.0318,-1.7487,-0.2758,0.8782,1.0337,-0.7764,-0.2795,-1.1286,9.0524,2.57,-2.2852,-0.0115,-2.2823,-0.7635,2.6745,8.9105,2.7293,0.6975,-4.7259,-0.3475,-6.3363,7.2835,0.595766,0,1698371515,77
-0.0566,-1.8756,-0.2638,0.9014,0.9335,-0.9019,-0.0598,-1.0506,9.0584,2.6721,-2.3633,-0.1431,-2.2709,-0.8074,2.3896,8.4964,3.1588,1.1245,-4.9981,-0.3771,-6.0018,6.8804,0.68602,0,1698371515,78
-0.0807,-2,-0.2528,0.9066,0.7296,-1.0122,0.0862,-0.9449,9.12,2.7586,-2.1487,-0.3041,-2.3584,-0.7955,2.1416,8.2453,3.4114,1.584,-5.2504,-0.4669,-5.7713,6.5686,0.756122,0,1698371515,79
-0.1042,-2.1637,-0.2436,0.8822,0.3889,-1.0587,0.1024,-0.6981,9.5027,2.7189,-1.7,-0.4103,-2.5217,-0.7831,1.9832,8.1285,3.4986,2.0278,-5.4395,-0.6323,-5.6503,6.3531,0.810573,0,1698371515,80
-0.1272,-2.2836,-0.236,0.8503,0.1293,-1.1672,0.0605,-0.5438,9.8508,2.7311,-1.1197,-0.5321,-2.7466,-0.7868,1.9342,8.1378,3.4214,2.4228,-5.5412,-0.8581,-5.6261,6.2472,0.852866,0,1698371515,81
-0.1494,-2.3097,-0.229,0.8179,-0.1319,-1.2191,0.0151,-0.4122,9.9728,2.7002,-0.4985,-0.7417,-3.0184,-0.7846,1.9667,8.2899,3.1731,2.7262,-5.5325,-1.0942,-5.6607,6.27,0.885717,0,1698371515,81
-0.1718,-2.2748,-0.2223,0.7859,-0.3877,-1.1674,-0.061,-0.0968,10.1226,2.6075,0.1136,-1.0392,-3.3173,-0.7829,2.0504,8.5539,2.763,2.84,-5.409,-1.3152,-5.7579,6.4,0.911233,0,1698371515,82
-0.1939,-2.2089,-0.2155,0.7689,-0.686,-1.1008,-0.1295,0.349,10.4004,2.5254,0.658,-1.3273,-3.6066,-0.7567,2.173,8.9165,2.2101,2.7469,-5.1835,-1.5005,-5.8992,6.5921,0.931052,0,1698371515,83
-0.2152,-2.1135,-0.2079,0.7599,-0.8684,-1.0491,-0.1392,0.66,10.5705,2.537,1.0536,-1.5383,-3.8517,-0.7158,2.3539,9.3261,1.5607,2.4624,-4.8592,-1.614,-6.0519,6.8439,0.946432,0,1698371515,84
-0.2355,-2.0918,-0.1998,0.7654,-0.9324,-0.9322,-0.0607,0.805,10.5615,2.551,1.2594,-1.6554,-4.0327,-0.6519,2.5763,9.7177,0.9362,1.9414,-4.4744,-1.5923,-6.2312,7.1296,0.958173,0,1698371515,85
-0.2549,-2.0282,-0.1909,0.7725,-0.8791,-0.7588,0.0982,0.8126,10.2691,2.5515,1.2745,-1.6551,-4.1384,-0.5374,2.7808,10.0382,0.4716,1.2291,-4.0783,-1.438,-6.4082,7.3932,0.960742,0,1698371515,85
-0.2729,-1.8909,-0.1813,0.804,-0.6902,-0.5508,0.347,0.7341,9.8449,2.5011,1.1285,-1.5432,-4.1583,-0.3698,2.9167,10.2375,0.2394,0.5259,-3.6983,-1.2089,-6.5251,7.5899,0.962941,0,1698371515,86
-0.2876,-1.7464,-0.1722,0.8452,-0.4412,-0.2836,0.6885,0.6065,9.3554,2.4989,0.8932,-1.2817,-4.0851,-0.1646,2.9717,10.3294,0.2226,-0.0331,-3.4039,-0.9259,-6.5568,7.6713,0.971215,0,1698371515,87
-0.2993,-1.6108,-0.1628,0.8929,-0.2232,0.0049,1.0449,0.457,9.0839,2.545,0.6236,-0.8646,-3.9123,0.0507,2.9535,10.326,0.3085,-0.4716,-3.2188,-0.643,-6.5172,7.6459,0.977642,0,1698371515,88
-0.3101,-1.5148,-0.1529,0.942,-0.029,0.3006,1.4061,0.2929,8.9549,2.5009,0.3536,-0.3881,-3.6597,0.2185,2.8607,10.2178,0.405,-0.824,-3.1269,-0.392,-6.44,7.5724,0.982634,0,1698371515,89
-0.3201,-1.4018,-0.1429,0.9692,0.1422,0.5814,1.7548,0.1623,8.8634,2.3763,0.1235,0.0851,-3.3731,0.3146,2.7374,10.041,0.4876,-0.9947,-3.1084,-0.1663,-6.3312,7.4749,0.986511,0,1698371515,90
-0.3295,-1.2821,-0.1328,1.0079,0.236,0.8166,2.0402,0.1477,9.0335,2.1488,-0.0408,0.491,-3.0824,0.3614,2.6226,9.8112,0.5569,-0.9236,-3.1188,0.028,-6.1835,7.3551,0.989523,0,1698371515,90
-0.3381,-1.1698,-0.1228,1.0463,0.2901,0.9745,2.2687,0.0883,9.2028,1.9833,-0.1368,0.7594,-2.8191,0.3489,2.5281,9.5645,0.6099,-0.6852,-3.1413,0.18,-6.0103,7.2166,0.991862,0,1698371515,91
-0.3464,-1.0802,-0.1128,1.0406,0.3491,1.0656,2.4547,-0.0317,9.3869,1.905,-0.156,0.8546,-2.6239,0.3132,2.4502,9.332,0.6612,-0.4702,-3.1826,0.2518,-5.8274,7.0754,0.993679,0,1698371515,92
-0.3543,-1.0207,-0.1029,1.0314,0.2646,1.1058,2.5821,-0.1066,9.7245,1.7432,-0.1011,0.8058,-2.5038,0.297,2.3699,9.0964,0.6952,-0.1847,-3.1713,0.2461,-5.6714,6.9379,0.99509,0,1698371515,93
-0.3618,-0.9734,-0.0932,1.0547,0.1368,1.1506,2.6708,-0.1387,9.7464,1.4507,0.0038,0.6767,-2.4472,0.3175,2.2941,8.8896,0.6729,0.2799,-2.9869,0.1652,-5.5738,6.8067,0.996186,0,1698371515,94
-0.3691,-0.9134,-0.0838,1.0399,0.0511,1.2084,2.715,-0.1321,9.5483,1.277,0.1313,0.5125,-2.4365,0.3624,2.2441,8.7284,0.6148,0.7516,-2.6085,0.0142,-5.5071,6.6872,0.997038,0,1698371515,94
-0.3756,-0.837,-0.0747,0.9817,-0.1015,1.1868,2.6582,-0.1122,9.505,1.2535,0.2653,0.3534,-2.4264,0.409,2.2114,8.6131,0.5355,1.1759,-2.0948,-0.1218,-5.4416,6.5936,0.997699,0,1698371515,95
-0.3815,-0.7864,-0.0659,0.9322,-0.2285,1.0908,2.5365,-0.155,9.484,1.1423,0.394,0.2375,-2.3709,0.4812,2.1751,8.549,0.4194,1.4628,-1.5389,-0.1924,-5.3811,6.5361,0.998213,0,1698371515,96
-0.3866,-0.7311,-0.0576,0.8751,-0.3588,0.9668,2.3567,-0.2647,9.3672,1.0219,0.4949,0.1859,-2.2588,0.5676,2.1588,8.5419,0.2577,1.6252,-0.9998,-0.1882,-5.3494,6.5113,0.998612,0,1698371515,97
-0.3905,-0.6493,-0.0497,0.8194,-0.5588,0.8773,2.0927,-0.1524,9.1866,0.9659,0.5673,0.1841,-2.1052,0.6413,2.1706,8.5872,0.0826,1.9201,-0.5359,-0.1232,-5.353,6.531,0.998922,0,1698371515,98
-0.3928,-0.5422,-0.0425,0.8033,-0.8564,0.8342,1.7726,0.1363,9.16,0.9899,0.6184,0.2211,-1.9228,0.6908,2.1954,8.6592,-0.0585,2.0375,-0.1951,-0.0385,-5.3936,6.5893,0.999162,0,1698371516,98
-0.3939,-0.4242,-0.0357,0.8104,-1.0689,0.7641,1.4191,0.3462,9.3021,0.9848,0.6555,0.2788,-1.7233,0.7199,2.2105,8.7553,-0.1485,1.8636,0.0559,0.0417,-5.4713,6.6681,0.999349,0,1698371516,99
-0.3942,-0.3448,-0.0294,0.7982,-1.193,0.6516,1.0551,0.4151,9.4068,0.9232,0.6801,0.3338,-1.5205,0.7457,2.2155,8.8631,-0.1724,1.7703,0.2501,0.1043,-5.5707,6.7423,0.999489,0,1698371516,0
-0.3941,-0.2738,-0.0235,0.775,-1.3993,0.5635,0.7033,0.4346,9.4406,0.8886,0.6916,0.3834,-1.317,0.7693,2.2194,8.9695,-0.1245,1.6936,0.4085,0.15,-5.6803,6.8096,0.999587,0,1698371516,1
-0.394,-0.2029,-0.0175,0.7637,-1.6448,0.5052,0.3653,0.5103,9.5275,0.8639,0.6987,0.4406,-1.1078,0.7822,2.2221,9.05,-0.0208,1.5966,0.5435,0.1822,-5.7824,6.8675,0.999629,0,1698371516,2
-0.3938,-0.1603,-0.0119,0.724,-1.8431,0.46,0.0406,0.6024,9.6084,0.8244,0.7137,0.514,-0.8789,0.7856,2.2176,9.0978,0.1288,1.4538,0.6569,0.1832,-5.8602,6.9033,0.99964,0,1698371516,3
-0.393,-0.086,-0.007,0.6711,-2.0466,0.4095,-0.2304,0.5962,9.8131,0.7927,0.7364,0.5992,-0.6218,0.7745,2.202,9.135,0.308,1.2731,0.7509,0.1672,-5.9174,6.9266,0.999643,0,1698371516,3
-0.3902,0.0348,-0.0023,0.6378,-2.0803,0.3413,-0.4622,0.5842,9.5092,0.9276,0.7634,0.6815,-0.3513,0.7409,2.1982,9.1486,0.4822,1.0586,0.8291,0.1446,-5.949,6.9407,0.999616,0,1698371516,4
-0.3848,0.158,0.0023,0.5947,-2.0595,0.3386,-0.7053,0.7119,8.8282,1.0126,0.7886,0.7489,-0.0672,0.6821,2.2049,9.1504,0.6336,0.7931,0.8907,0.1182,-5.9514,6.949,0.999553,0,1698371516,5
-0.3761,0.3092,0.0067,0.5414,-2.1329,0.4311,-0.9316,0.8708,8.6394,0.8747,0.8031,0.797,0.232,0.5985,2.1962,9.1526,0.7419,0.6491,0.9547,0.0974,-5.9554,6.9509,0.999481,0,1698371516,6
-0.3635,0.5202,0.0108,0.4982,-1.976,0.5456,-1.1057,0.9514,8.4586,0.7783,0.8177,0.8164,0.5419,0.514,2.1563,9.1617,0.7894,0.4256,0.9916,0.0283,-5.9707,6.9513,0.99941,0,1698371516,7
-0.3491,0.7134,0.0157,0.5286,-1.6581,0.7137,-1.2333,1.0094,7.9619,0.8712,0.8402,0.7983,0.6428,0.4338,2.113,9.1897,0.8168,0.1821,0.993,-0.1004,-6.0065,6.9516,0.999367,0,1698371516,8
-0.3342,0.8942,0.0217,0.587,-1.3745,0.9279,-1.3323,1.0676,7.9283,1.0426,0.8747,0.7339,0.7911,0.3551,2.0855,9.232,0.7973,0.0374,1.0273,-0.2557,-6.0679,6.9666,0.999427,0,1698371516,8
-0.3189,1.0872,0.0278,0.6144,-0.9984,1.1104,-1.3752,1.0295,8.4293,1.0645,0.9168,0.6089,1.1798,0.2761,2.0799,9.2988,0.7258,-0.2933,1.0915,-0.3967,-6.1316,7.0121,0.999547,0,1698371516,9
-0.3044,1.2128,0.0342,0.6318,-0.557,1.2947,-1.3241,0.9594,8.722,1.031,0.9598,0.4351,1.5218,0.1973,2.1232,9.3879,0.6678,-0.7503,1.1916,-0.4749,-6.1959,7.0838,0.999647,0,1698371516,10
-0.2918,1.2163,0.0405,0.6355,-0.1588,1.4328,-1.2026,0.8447,8.9963,1.0705,1.0085,0.2465,1.807,0.1396,2.2073,9.5091,0.6236,-1.2349,1.3418,-0.4758,-6.2669,7.1844,0.999726,0,1698371516,11
-0.2827,1.0955,0.0457,0.6079,0.5723,1.3876,-1.0444,0.6366,8.6896,1.4462,1.0591,0.071,2.0303,0.0865,2.3162,9.6715,0.5816,-1.7169,1.5198,-0.3869,-6.3306,7.2995,0.999787,0,1698371516,12
-0.2782,0.9011,0.0495,0.5309,1.2407,1.3311,-0.8712,0.4399,8.0525,1.9264,1.1043,-0.0816,2.1977,0.0231,2.4441,9.8441,0.5216,-2.1169,1.7024,-0.2313,-6.3768,7.4075,0.999835,0,1698371516,13
-0.2774,0.6807,0.0524,0.463,1.3295,1.4287,-0.717,0.4064,8.413,1.9105,1.1353,-0.2137,2.3107,-0.0171,2.5752,9.9998,0.4376,-2.3739,1.8545,-0.0637,-6.4085,7.5286,0.999872,0,1698371516,13
-0.2785,0.4939,0.0549,0.4187,1.2937,1.6229,-0.5828,0.5436,9.1059,1.4864,1.1422,-0.3307,2.3721,-0.0293,2.6952,10.1414,0.34,-2.53,1.9444,0.0703,-6.4133,7.6467,0.9999,0,1698371516,14
-0.2803,0.35,0.0569,0.3708,1.2267,1.8522,-0.4794,0.6866,9.6014,1.0027,1.1297,-0.4413,2.3959,-0.0412,2.7799,10.2732,0.2547,-2.5916,1.9453,0.1481,-6.4296,7.7438,0.999923,0,1698371516,15
-0.2823,0.2178,0.0583,0.3109,1.2173,2.0457,-0.4136,0.7706,10.1661,0.6136,1.1183,-0.5621,2.4025,-0.048,2.8221,10.436,0.1809,-2.5356,1.8557,0.1536,-6.4989,7.8414,0.99994,0,1698371516,16
-0.284,0.1153,0.0588,0.2569,1.3326,2.2206,-0.3761,0.8231,10.5016,0.421,1.1504,-0.6449,2.4101,-0.0333,2.8451,10.6507,0.0954,-2.3786,1.711,0.0701,-6.6161,7.9805,0.999953,0,1698371516,17
-0.2853,0.0685,0.0587,0.2004,1.3703,2.4034,-0.3632,0.8777,10.6023,0.4988,1.2272,-0.7322,2.4357,0.0174,2.9252,10.9096,-0.0341,-2.2107,1.5706,-0.0781,-6.7518,8.2105,0.999964,0,1698371516,18
-0.2855,0.0716,0.0585,0.1408,1.3433,2.5752,-0.3233,0.8488,10.8703,0.7474,1.3117,-0.8528,2.4939,0.0678,3.1167,11.2115,-0.2267,-2.1144,1.4998,-0.2427,-6.8735,8.5308,0.999972,0,1698371516,18
-0.2838,0.1282,0.0582,0.093,1.1766,2.758,-0.2651,0.7643,11.3257,1.0753,1.3772,-0.9303,2.5851,0.093,3.3903,11.531,-0.4632,-1.8777,1.5377,-0.389,-6.9992,8.9089,0.999978,0,1698371516,19
-0.2794,0.2509,0.0574,0.0481,0.8877,2.7722,-0.1678,0.545,11.6222,1.6239,1.4179,-0.9095,2.7096,0.1316,3.6739,11.893,-0.7193,-1.762,1.7044,-0.5159,-7.1603,9.3165,0.999983,0,1698371516,20
-0.2727,0.3632,0.0544,-0.0602,0.7733,2.6597,0.0346,0.0195,11.8611,2.3948,1.4206,-0.7733,2.8694,0.1313,3.9696,12.2218,-0.9558,-1.9772,1.9847,-0.6098,-7.3372,9.7247,0.999987,0,1698371516,21
-0.2652,0.4168,0.0473,-0.2584,0.9708,2.5399,0.3308,-0.691,12.018,2.942,1.3212,-0.5438,3.0532,0.0558,4.2875,12.4007,-1.1267,-2.2125,2.3404,-0.6212,-7.4781,10.0658,0.99999,0,1698371516,22
-0.2587,0.4314,0.0358,-0.483,1.2145,2.3949,0.6913,-1.3436,12.0969,3.1262,1.0574,-0.2378,3.2615,-0.0382,4.5742,12.4124,-1.181,-2.42,2.7344,-0.533,-7.5272,10.2549,0.999992,0,1698371516,23
-0.254,0.4015,0.0206,-0.7257,1.4532,2.1893,1.0488,-1.8211,12.2196,3.2784,0.6259,0.0911,3.5103,-0.1189,4.8006,12.2655,-1.1005,-2.5454,3.0906,-0.3565,-7.4193,10.2783,0.999994,0,1698371516,23
-0.2511,0.3562,0.0026,-1.0044,1.8133,1.9078,1.3137,-1.8964,11.8272,3.3862,0.0657,0.4079,3.7998,-0.1878,4.927,11.9755,-0.8999,-2.498,3.3426,-0.1743,-7.1605,10.1152,0.999995,0,1698371516,24
-0.2492,0.3269,-0.0185,-1.3012,2.2319,1.5588,1.5049,-1.7456,11.2254,3.4044,-0.5689,0.6991,4.1082,-0.2383,4.9368,11.5546,-0.6282,-2.2455,3.4557,-0.0651,-6.7708,9.7927,0.999996,0,1698371516,25
-0.2462,0.3575,-0.0403,-1.585,2.6048,1.205,1.5743,-1.644,10.3315,3.6086,-1.2117,0.9722,4.3997,-0.2397,4.8671,11.0469,-0.3387,-1.7971,3.4677,-0.0538,-6.2839,9.3697,0.999997,0,1698371516,26
-0.24,0.4676,-0.0629,-1.8461,2.3984,1.1893,1.4253,-1.3061,9.5417,3.6106,-1.8141,1.2508,4.6764,-0.2059,4.7341,10.4968,-0.0645,-1.2333,3.4267,-0.1513,-5.7806,8.8787,0.999998,0,1698371516,27
-0.2292,0.667,-0.0882,-2.0683,1.7908,1.3936,1.1144,-0.8902,9.6958,3.2257,-2.3281,1.664,4.9416,-0.1666,4.5202,9.9439,0.1579,-0.728,3.3395,-0.3498,-5.3074,8.3947,0.999998,0,1698371516,28
-0.2153,0.8467,-0.1142,-2.2731,1.4585,1.5334,0.763,-0.6113,9.7538,2.9652,-2.677,1.9347,5.1672,-0.1479,4.2862,9.4258,0.2965,-0.344,3.2598,-0.6144,-4.8968,7.9805,0.999999,0,1698371516,28
-0.2007,0.9177,-0.1396,-2.4363,1.157,1.6344,0.4748,-0.417,9.4717,2.9397,-2.7997,1.9208,5.3288,-0.1565,4.0955,8.9896,0.3437,-0.0859,3.2627,-0.9024,-4.6001,7.6591,0.999999,0,1698371516,29
-0.1872,0.968,-0.1639,-2.4361,0.6816,1.735,0.2943,-0.3071,9.6511,2.8195,-2.7204,1.9433,5.4236,-0.1988,3.963,8.6783,0.3216,0.0456,3.4004,-1.1941,-4.4586,7.441,0.999999,0,1698371516,30
-0.1759,0.9997,-0.1876,-2.4099,0.332,1.7356,0.1567,-0.4096,10.1868,2.5032,-2.507,2.046,5.4623,-0.3151,3.8897,8.4914,0.2234,-0.0636,3.5713,-1.4788,-4.3998,7.3242,0.999999,0,1698371516,31
-0.1665,1.0198,-0.2112,-2.4738,0.2462,1.5776,0.0208,-0.8158,10.4222,2.3639,-2.1547,2.1649,5.4191,-0.5,3.848,8.4424,0.0057,-0.318,3.7637,-1.6854,-4.3958,7.3105,1,0,1698371516,32
-0.1581,1.005,-0.2344,-2.5282,0.3279,1.3168,-0.1239,-1.4213,10.093,2.4757,-1.6936,2.1891,5.2526,-0.7109,3.8458,8.516,-0.3424,-0.5641,4.0708,-1.7584,-4.5113,7.403,0.999999,0,1698371516,33
-0.1501,0.9565,-0.2568,-2.5394,0.2831,1.0596,-0.3036,-2.0194,9.7483,2.478,-1.2127,2.0588,4.9452,-0.9301,3.9016,8.6638,-0.7346,-0.8142,4.4252,-1.7116,-4.719,7.5655,0.997895,0,1698371516,33
-0.1422,0.9241,-0.2781,-2.5234,-0.0415,0.8881,-0.5071,-2.4885,9.705,2.2647,-0.788,1.8144,4.4908,-1.1512,3.9877,8.8628,-1.0707,-1.0535,4.7576,-1.5588,-4.9457,7.7563,0.953617,0,1698371516,34
-0.1339,0.8908,-0.2984,-2.4599,-0.3541,0.7454,-0.7308,-2.74,9.6452,2.087,-0.4854,1.5376,3.9154,-1.3365,4.0711,9.0674,-1.285,-1.207,5.0269,-1.3305,-5.1381,7.9465,0.699814,0,1698371516,35
-0.1252,0.8711,-0.3171,-2.334,-0.5398,0.4889,-0.9651,-2.7812,9.5333,2.066,-0.3177,1.2647,3.2802,-1.4465,4.1228,9.2228,-1.3815,-1.2419,5.207,-1.0575,-5.2798,8.1058,0.322057,0,1698371516,36
-0.1159,0.8578,-0.3337,-2.2159,-0.6142,0.1354,-1.1811,-2.8322,9.4565,2.0278,-0.2812,0.9616,2.6488,-1.4619,4.1282,9.3165,-1.3866,-1.1719,5.2839,-0.7465,-5.3584,8.1979,0.026884,0,1698371516,37
-0.102,0.839,-0.3532,-2.0713,-0.166,-0.7582,-1.5646,-2.5951,8.7274,2.0841,-0.4977,0.3585,1.6149,-1.1272,4.0057,9.2955,-1.1533,-0.5256,5.0606,-0.2288,-5.2609,8.1499,-0.200657,0,1698371516,38
-0.0876,0.8363,-0.3701,-1.8511,0.2131,-1.1784,-1.7346,-2.4134,8.8102,1.9229,-0.6315,0.1724,1.2905,-0.9031,3.9338,9.2041,-1.0074,-0.1127,4.843,-0.0757,-5.1261,8.0622,-0.271038,0,1698371516,38
-0.0776,0.8651,-0.3798,-1.639,0.5603,-1.5406,-1.8649,-2.2781,8.908,1.7298,-0.7525,0.1157,1.1033,-0.6969,3.8652,9.0836,-0.8659,0.2234,4.5486,-0.0093,-4.995,7.9284,-0.280652,0,1698371516,39
-0.0685,0.9054,-0.3882,-1.4568,0.5889,-1.8014,-1.9576,-2.056,8.9526,1.6293,-0.8353,0.1807,1.0346,-0.5039,3.7905,8.9446,-0.7271,0.5381,4.1998,-0.0289,-4.8394,7.7912,-0.380349,0,1698371516,40
-0.06,0.9325,-0.3963,-1.3076,0.5651,-2.01,-2.0364,-1.7905,9.1709,1.5381,-0.8622,0.3071,1.0443,-0.3417,3.7145,8.7917,-0.6124,0.8362,3.8565,-0.0858,-4.6715,7.6494,-0.499797,0,1698371516,41
-0.0522,0.9164,-0.4043,-1.2091,0.5133,-2.1967,-2.0831,-1.6131,9.4223,1.4219,-0.8447,0.4444,1.0876,-0.2461,3.6417,8.6324,-0.5353,1.0396,3.5694,-0.173,-4.5536,7.4709,-0.603407,0,1698371516,42
-0.0445,0.8586,-0.4122,-1.1556,0.4356,-2.3213,-2.0964,-1.4566,9.4558,1.3585,-0.786,0.54,1.1144,-0.208,3.576,8.5006,-0.5052,1.1746,3.354,-0.2744,-4.4696,7.3052,-0.685627,0,1698371516,43
-0.0371,0.806,-0.42,-1.1079,0.3863,-2.4078,-2.0846,-1.3532,9.3851,1.3668,-0.6816,0.5879,1.0892,-0.2062,3.5268,8.411,-0.521,1.2224,3.1833,-0.3586,-4.4051,7.1984,-0.750041,0,1698371516,43
-0.0305,0.7544,-0.4274,-1.0293,0.1538,-2.3898,-2.0379,-1.2542,9.2562,1.3778,-0.5519,0.5926,0.9913,-0.2184,3.4862,8.3514,-0.5683,1.2212,3.0439,-0.4022,-4.3689,7.1326,-0.800994,0,1698371516,44
-0.0248,0.6933,-0.4345,-0.9594,-0.3371,-2.2105,-1.9948,-0.9349,9.6783,1.1554,-0.4043,0.5529,0.8248,-0.2346,3.4587,8.3227,-0.6297,1.181,2.9161,-0.4226,-4.3603,7.1063,-0.84326,0,1698371516,45
-0.0196,0.6242,-0.4414,-0.8946,-0.9271,-2.0738,-1.8923,-0.7344,9.9842,1.0062,-0.253,0.5015,0.6197,-0.2418,3.4568,8.3308,-0.6756,1.1166,2.7733,-0.4415,-4.3624,7.1215,-0.878199,0,1698371516,46
-0.0151,0.5562,-0.4474,-0.837,-1.2925,-2.0392,-1.6951,-0.818,9.842,1.0592,-0.1244,0.4608,0.405,-0.2234,3.4851,8.3885,-0.702,1.0614,2.5942,-0.4394,-4.3742,7.1811,-0.905394,0,1698371516,47
-0.0111,0.5065,-0.4525,-0.7706,-1.3829,-1.9825,-1.4558,-0.9908,9.6704,1.0782,-0.0271,0.4386,0.1999,-0.1893,3.5409,8.4881,-0.7097,1.016,2.3562,-0.4167,-4.4029,7.2645,-0.926516,0,1698371516,48
-0.007,0.4908,-0.4567,-0.6671,-1.5161,-1.8601,-1.1959,-1.17,9.3845,1.0855,0.0246,0.4477,0.0133,-0.1457,3.6188,8.6077,-0.6884,0.9927,2.0572,-0.3803,-4.4487,7.3547,-0.942923,0,1698371516,48
-0.0023,0.4964,-0.4593,-0.5318,-1.71,-1.6601,-0.9104,-1.2506,9.126,1.0724,0.0282,0.4838,-0.1486,-0.0832,3.6972,8.727,-0.642,0.9882,1.7031,-0.3318,-4.4987,7.4558,-0.955667,0,1698371516,49
0.0025,0.4936,-0.4599,-0.4074,-1.8222,-1.4921,-0.6078,-1.2691,8.9689,1.0596,-0.016,0.5314,-0.2787,-0.0163,3.7597,8.8184,-0.577,0.9873,1.3011,-0.2812,-4.5451,7.5554,-0.965565,0,1698371516,50
0.0076,0.4991,-0.4596,-0.3286,-1.9605,-1.3521,-0.342,-1.19,8.9911,1.028,-0.1141,0.5769,-0.384,0.047,3.8013,8.888,-0.4822,0.9882,0.8857,-0.2494,-4.5781,7.6397,-0.973253,0,1698371516,51
0.0135,0.544,-0.4595,-0.2587,-2.1139,-1.2,-0.1006,-1.1114,8.9974,1.0093,-0.2552,0.6216,-0.4709,0.114,3.8237,8.9316,-0.3719,0.9907,0.4975,-0.2475,-4.5918,7.6986,-0.979221,0,1698371516,52
0.0204,0.5946,-0.4589,-0.1808,-2.2748,-1.0707,0.1252,-1.0864,8.9505,1.0576,-0.4107,0.6776,-0.5375,0.1746,3.8328,8.9228,-0.2701,1.0054,0.1644,-0.2708,-4.5876,7.7253,-0.983678,0,1698371516,53
0.028,0.6056,-0.457,-0.0942,-2.2703,-1.0419,0.3228,-1.0221,8.5781,1.236,-0.5639,0.7484,-0.5816,0.2024,3.8394,8.859,-0.1808,1.0134,-0.1165,-0.3015,-4.547,7.7238,-0.986749,0,1698371516,53
0.0359,0.6291,-0.4533,0.0166,-2.1841,-1.034,0.5256,-1.0163,8.1864,1.2666,-0.6915,0.8213,-0.6074,0.1925,3.8498,8.7674,-0.1173,1.0077,-0.3688,-0.34,-4.4754,7.7048,-0.988991,0,1698371516,54
0.0432,0.6575,-0.4477,0.1613,-2.2143,-0.8762,0.771,-1.0441,8.0896,1.0394,-0.7666,0.8754,-0.6256,0.1487,3.8643,8.6881,-0.0834,1.0195,-0.6099,-0.417,-4.3848,7.6839,-0.990056,0,1698371516,55
0.0501,0.6596,-0.4393,0.3721,-2.1475,-0.7264,1.0289,-0.9799,8.0024,0.8142,-0.7756,0.8858,-0.6475,0.0794,3.8823,8.6336,-0.0801,1.0175,-0.8611,-0.5273,-4.3015,7.6735,-0.988955,0,1698371516,56
0.0573,0.6771,-0.4288,0.5909,-1.995,-0.6415,1.2624,-0.9161,8.044,0.7484,-0.711,0.8275,-0.6832,-0.0067,3.905,8.636,-0.1184,0.9606,-1.1235,-0.6517,-4.2708,7.6895,-0.989169,0,1698371516,57
0.0648,0.6828,-0.4172,0.7477,-1.7137,-0.5799,1.4779,-0.9195,7.9817,0.9838,-0.5892,0.6842,-0.7425,-0.0964,3.9238,8.6883,-0.1925,0.8431,-1.3929,-0.7759,-4.3049,7.7247,-0.991585,0,1698371516,58
0.0725,0.6849,-0.4047,0.8738,-1.3649,-0.6206,1.6351,-0.9304,7.9806,1.2816,-0.4282,0.4569,-0.8397,-0.1652,3.9269,8.8014,-0.2849,0.6649,-1.6516,-0.8672,-4.4079,7.7741,-0.993464,0,1698371516,58
0.0801,0.6848,-0.3926,0.9689,-0.9423,-0.6974,1.7188,-1.0589,8.2673,1.3883,-0.2477,0.1646,-0.9851,-0.205,3.9335,8.9654,-0.3721,0.4788,-1.8688,-0.9192,-4.5691,7.8521,-0.994922,0,1698371516,59
0.0869,0.6751,-0.3821,0.9645,-0.522,-0.7128,1.7242,-1.2039,8.5194,1.4498,-0.0777,-0.1597,-1.1764,-0.2154,3.9604,9.138,-0.4389,0.3215,-2.0255,-0.9634,-4.7438,7.9461,-0.995417,0,1698371516,60
0.0929,0.6387,-0.3742,0.8802,-0.2629,-0.723,1.6321,-1.1551,8.931,1.5008,0.0612,-0.4593,-1.3974,-0.2119,4.0184,9.3159,-0.4909,0.2035,-2.0987,-0.9859,-4.891,8.0621,-0.994217,0,1698371516,61
0.0974,0.5539,-0.3688,0.7786,-0.013,-0.7633,1.4923,-1.0461,9.4476,1.4356,0.1597,-0.7022,-1.6347,-0.1804,4.057,9.4762,-0.5252,0.1392,-2.0967,-0.9718,-5.0283,8.1801,-0.992592,0,1698371516,62
0.0997,0.4605,-0.3654,0.6631,0.2074,-0.8057,1.3497,-0.994,9.7235,1.2423,0.2259,-0.8747,-1.8608,-0.1168,4.0605,9.6194,-0.5349,0.1207,-2.0628,-0.9417,-5.1574,8.2746,-0.992529,0,1698371516,63
0.1003,0.3586,-0.3637,0.5348,0.2304,-0.8148,1.1853,-0.9859,9.8953,0.9187,0.268,-0.9618,-2.0364,-0.0336,4.0635,9.7417,-0.5211,0.0894,-2.0365,-0.918,-5.2558,8.3515,-0.993329,0,1698371516,63
0.1003,0.2809,-0.3637,0.4096,0.1639,-0.8286,0.9944,-1.0459,9.978,0.5818,0.299,-0.98,-2.1318,0.0493,4.0581,9.8692,-0.495,0.0241,-2.045,-0.8974,-5.3469,8.4193,-0.99411,0,1698371516,64
0.1003,0.2212,-0.364,0.3209,0.177,-0.8786,0.8122,-1.186,9.903,0.3922,0.3368,-0.9533,-2.1327,0.0923,4.055,10.0356,-0.4816,-0.042,-2.1121,-0.8922,-5.4268,8.5042,-0.995184,0,1698371516,65
0.1003,0.1626,-0.364,0.2568,0.2835,-0.9353,0.639,-1.3793,9.8631,0.3648,0.3891,-0.918,-2.049,0.0701,4.0667,10.2341,-0.4993,-0.1239,-2.2418,-0.917,-5.5086,8.6253,-0.996243,0,1698371516,66
0.1003,0.1223,-0.3639,0.2003,0.471,-1.0083,0.4526,-1.553,10.0014,0.4389,0.4723,-0.9239,-1.9389,-0.0161,4.0919,10.454,-0.5735,-0.2387,-2.409,-0.9338,-5.6333,8.7634,-0.992894,0,1698371516,67
0.1002,0.1019,-0.3629,0.1946,0.8442,-1.1903,0.2072,-1.6505,10.5177,0.5341,0.5813,-0.9957,-1.8823,-0.1373,4.1178,10.6786,-0.7011,-0.3611,-2.5712,-0.9228,-5.8168,8.8974,-0.98784,0,1698371516,68
0.0997,0.0808,-0.3598,0.259,1.4459,-1.4961,-0.032,-1.8047,10.3179,0.9464,0.677,-1.1351,-1.9193,-0.2751,4.1393,10.8835,-0.8308,-0.4451,-2.6998,-0.8972,-6.0516,9.0253,-0.987182,0,1698371516,68
0.099,0.056,-0.3538,0.3778,1.7864,-1.6416,-0.1853,-1.8484,9.5942,1.627,0.7343,-1.3259,-2.0435,-0.4122,4.1469,11.0923,-0.9418,-0.432,-2.8065,-0.8936,-6.3191,9.1674,-0.988569,0,1698371516,69
0.0983,0.0126,-0.3454,0.4981,1.7329,-1.5842,-0.365,-1.6773,9.7307,2.0963,0.7643,-1.5134,-2.2149,-0.5308,4.152,11.3438,-1.0494,-0.3289,-2.9226,-0.929,-6.6018,9.3488,-0.990406,0,1698371516,70
0.0964,-0.0702,-0.3362,0.5759,1.7826,-1.4152,-0.5292,-1.6276,10.8532,2.1005,0.7799,-1.659,-2.4069,-0.624,4.1635,11.6244,-1.1439,-0.2258,-3.0545,-0.9672,-6.8941,9.5553,-0.991272,0,1698371516,71
0.092,-0.1903,-0.3281,0.633,2.0572,-1.1672,-0.6653,-1.5969,11.6067,2.108,0.7597,-1.79,-2.6054,-0.672,4.1831,11.8488,-1.1697,-0.2088,-3.1809,-0.9629,-7.2139,9.7351,-0.990221,0,1698371516,72
0.0848,-0.3572,-0.3219,0.6355,2.2978,-1.0239,-0.8631,-1.3746,11.6141,2.4771,0.6792,-1.856,-2.7647,-0.6767,4.1772,11.945,-1.0602,-0.2893,-3.2892,-0.9174,-7.5322,9.8305,-0.987094,0,1698371516,73
0.0744,-0.5516,-0.3185,0.5443,2.3134,-0.9877,-1.0567,-1.189,11.7313,2.7483,0.5153,-1.7734,-2.8288,-0.6555,4.0836,11.9075,-0.7595,-0.3706,-3.3845,-0.851,-7.7477,9.7925,-0.972718,0,1698371516,73
0.06,-0.8242,-0.3173,0.4491,2.2369,-0.9425,-1.2165,-1.0783,11.6155,2.8026,0.2448,-1.5593,-2.7977,-0.6297,3.9085,11.7113,-0.2678,-0.3604,-3.4755,-0.761,-7.8047,9.5997,-0.821054,0,1698371516,74
0.0417,-1.1882,-0.3161,0.43,2.1255,-0.9866,-1.3278,-0.6694,11.1444,2.7993,-0.1229,-1.2584,-2.7078,-0.6356,3.6838,11.3488,0.3562,-0.2401,-3.5777,-0.6608,-7.7162,9.2637,-0.495745,0,1698371516,75
0.02,-1.5649,-0.3118,0.5045,1.8872,-1.1862,-1.2942,-0.3687,10.683,2.8286,-0.5492,-0.8968,-2.5784,-0.6647,3.4059,10.8588,1.0684,-0.0452,-3.7338,-0.5729,-7.4969,8.7953,-0.166214,0,1698371516,76
-0.0042,-1.8725,-0.3036,0.6078,1.6698,-1.3771,-1.1155,-0.5507,10.1029,2.7874,-0.9638,-0.5077,-2.4157,-0.7371,3.1172,10.3122,1.7989,0.1957,-3.9548,-0.5094,-7.1678,8.2548,0.085101,0,1698371516,77
-0.03,-2.0989,-0.2924,0.7165,1.3722,-1.5031,-0.8855,-0.7514,9.4419,2.5895,-1.2994,-0.1603,-2.2518,-0.858,2.8466,9.7677,2.4497,0.4782,-4.2363,-0.471,-6.7829,7.7169,0.282688,0,1698371516,78
-0.0564,-2.2736,-0.2796,0.8536,1.1556,-1.6974,-0.6855,-0.9183,9.0888,2.5253,-1.5388,0.0575,-2.1424,-0.9636,2.573,9.2688,2.9604,0.7974,-4.5556,-0.4554,-6.4296,7.248,0.442704,0,1698371516,78
-0.0822,-2.3712,-0.267,0.9198,0.9993,-1.8942,-0.5387,-1.0302,8.8865,2.6497,-1.6609,0.1091,-2.1324,-1.0214,2.3268,8.8671,3.3178,1.1714,-4.8436,-0.4467,-6.1266,6.8824,0.567078,0,1698371516,79
-0.1068,-2.369,-0.2558,0.9017,0.652,-2.0275,-0.4554,-1.0039,9.1305,2.7628,-1.6236,0.0282,-2.2397,-1.051,2.1599,8.5707,3.4983,1.5957,-5.052,-0.4384,-5.8784,6.6161,0.66363,0,1698371516,80
-0.1307,-2.3111,-0.2465,0.8552,0.3533,-2.1694,-0.4282,-1.07,9.5852,2.7989,-1.4378,-0.1412,-2.4414,-1.074,2.0899,8.4069,3.4706,1.9696,-5.1593,-0.4701,-5.7226,6.4625,0.737821,0,1698371517,81
-0.1547,-2.2542,-0.2383,0.816,0.0932,-2.2362,-0.4292,-0.8966,9.8024,2.7072,-1.1265,-0.3938,-2.7038,-1.0908,2.0913,8.3813,3.2309,2.2344,-5.1489,-0.5694,-5.6579,6.4228,0.793779,0,1698371517,82
-0.1787,-2.2813,-0.2306,0.7957,-0.0986,-2.277,-0.3925,-0.5376,9.8117,2.6846,-0.7006,-0.7161,-3.004,-1.0782,2.135,8.4828,2.8198,2.418,-5.0352,-0.7114,-5.6988,6.5042,0.837037,0,1698371517,83
-0.2015,-2.3161,-0.2233,0.779,-0.2664,-2.2567,-0.3018,-0.231,9.9342,2.7499,-0.2122,-1.0423,-3.3172,-1.0029,2.2066,8.7147,2.3181,2.5358,-4.8326,-0.8808,-5.8319,6.6877,0.870547,0,1698371517,83
-0.2234,-2.2666,-0.2157,0.78,-0.539,-2.0943,-0.1998,0.1832,10.2581,2.7367,0.2575,-1.311,-3.6065,-0.888,2.3047,9.0165,1.8049,2.5456,-4.5526,-1.034,-6.0012,6.9377,0.897007,0,1698371517,84
-0.2451,-2.2326,-0.2071,0.7852,-0.9928,-1.9017,-0.0873,0.5873,10.4696,2.7417,0.6352,-1.4532,-3.8397,-0.7635,2.4386,9.3289,1.3738,2.4125,-4.2269,-1.1092,-6.1825,7.2319,0.919374,0,1698371517,85
-0.2659,-2.16,-0.1981,0.7767,-1.2821,-1.6686,0.0623,0.9533,10.3412,2.8515,0.8807,-1.4231,-4.0046,-0.6235,2.5854,9.6283,1.1004,2.1047,-3.8972,-1.1002,-6.3586,7.5087,0.936915,0,1698371517,86
-0.2851,-2.0328,-0.1889,0.811,-1.1865,-1.3904,0.2798,1.1328,9.9854,2.9445,0.9684,-1.2838,-4.0859,-0.4707,2.7034,9.8688,1.032,1.6585,-3.5985,-1.0203,-6.4921,7.7256,0.948951,0,1698371517,87
-0.3023,-1.9561,-0.1794,0.849,-0.9963,-1.0798,0.5434,1.1699,9.5893,2.9245,0.895,-1.0801,-4.0681,-0.3036,2.7657,10.0081,1.1553,1.1909,-3.3596,-0.8724,-6.5585,7.8489,0.958102,0,1698371517,88
-0.3175,-1.902,-0.1697,0.8575,-0.7557,-0.7481,0.8453,1.0822,9.217,2.8801,0.6991,-0.7933,-3.9468,-0.111,2.7747,10.0459,1.3508,0.7578,-3.2099,-0.6883,-6.5399,7.8629,0.966789,0,1698371517,88
-0.3311,-1.8035,-0.1602,0.8531,-0.5697,-0.3976,1.1693,0.8769,9.0016,2.8074,0.443,-0.4554,-3.7231,0.0688,2.7449,10.0029,1.5137,0.4725,-3.1414,-0.4972,-6.4427,7.7952,0.974168,0,1698371517,89
-0.3436,-1.6676,-0.1507,0.8528,-0.3945,-0.0683,1.4865,0.6178,8.8123,2.7188,0.1878,-0.1206,-3.4318,0.182,2.6827,9.8973,1.6325,0.3822,-3.1307,-0.2956,-6.2803,7.6702,0.979934,0,1698371517,90
-0.3552,-1.5179,-0.1412,0.8888,-0.2755,0.2292,1.7577,0.4283,8.7121,2.5961,-0.0343,0.1685,-3.1228,0.2405,2.6261,9.7271,1.7112,0.4186,-3.1736,-0.1157,-6.0601,7.5086,0.984414,0,1698371517,91
-0.3659,-1.3921,-0.132,0.9028,-0.2171,0.4621,1.9887,0.3433,8.8251,2.4262,-0.2,0.3657,-2.8385,0.2651,2.5733,9.5219,1.7408,0.5133,-3.2469,0.0066,-5.8554,7.3204,0.987894,0,1698371517,92
-0.3763,-1.2879,-0.1232,0.8992,-0.1385,0.6182,2.1775,0.2049,8.9468,2.2621,-0.2886,0.4525,-2.616,0.2832,2.5043,9.3182,1.7118,0.6491,-3.3141,0.0562,-5.6699,7.1191,0.990597,0,1698371517,93
-0.3863,-1.2123,-0.1146,0.9026,-0.144,0.7471,2.3242,0.0806,9.0202,2.0794,-0.2867,0.4389,-2.4594,0.3084,2.4207,9.1228,1.6348,0.8338,-3.3493,0.0329,-5.4761,6.9363,0.992696,0,1698371517,93
-0.3957,-1.1813,-0.1064,0.9159,-0.2581,0.849,2.3989,0.0832,9.1807,1.8658,-0.223,0.3542,-2.3599,0.3425,2.3542,8.9473,1.5681,1.0625,-3.3246,-0.053,-5.3069,6.7611,0.994327,0,1698371517,94
-0.4043,-1.14,-0.0988,0.9204,-0.4559,0.9417,2.4076,0.1354,9.2911,1.6908,-0.1318,0.2424,-2.2987,0.3791,2.3162,8.7906,1.4831,1.2725,-3.1631,-0.1834,-5.1928,6.5981,0.995594,0,1698371517,95
-0.4122,-1.0621,-0.0915,0.8772,-0.6291,0.9865,2.3665,0.148,9.3056,1.6008,-0.0201,0.1505,-2.2368,0.4222,2.2954,8.6748,1.3284,1.4135,-2.8425,-0.3167,-5.1101,6.4987,0.996577,0,1698371517,96
-0.419,-0.9753,-0.0846,0.8154,-0.7807,0.988,2.2656,0.1911,9.3478,1.5206,0.1,0.1166,-2.1503,0.4891,2.2735,8.623,1.1256,1.5426,-2.435,-0.4141,-5.0504,6.4544,0.997342,0,1698371517,97
-0.425,-0.8861,-0.078,0.7667,-0.8975,0.95,2.1217,0.2096,9.3982,1.4018,0.2256,0.1362,-2.0227,0.56,2.2422,8.6125,0.8914,1.688,-2.0043,-0.47,-5.0436,6.4622,0.997935,0,1698371517,98
-0.4297,-0.7844,-0.0716,0.7229,-0.9849,0.9009,1.9024,0.2435,9.4152,1.2428,0.359,0.1975,-1.8494,0.6178,2.2364,8.645,0.6507,1.7984,-1.5896,-0.4987,-5.0816,6.5311,0.998396,0,1698371517,98
-0.4324,-0.6506,-0.0657,0.682,-1.0766,0.8594,1.6274,0.3169,9.3301,1.1307,0.4813,0.3014,-1.6457,0.6563,2.2402,8.7258,0.4398,1.7972,-1.2233,-0.5041,-5.1675,6.6415,0.998754,0,1698371517,99
-0.4331,-0.5067,-0.0596,0.6577,-1.1291,0.8254,1.3438,0.3726,9.1696,1.0966,0.5695,0.4229,-1.4236,0.665,2.2602,8.838,0.2863,1.7111,-0.9088,-0.4843,-5.2821,6.7725,0.999032,0,1698371517,0
-0.433,-0.3819,-0.0536,0.6405,-1.2006,0.8254,1.0597,0.3939,9.0855,1.0554,0.6227,0.5327,-1.1966,0.648,2.2953,8.9479,0.2037,1.5726,-0.634,-0.4561,-5.3973,6.9012,0.999248,0,1698371517,1
-0.4327,-0.2842,-0.0483,0.6124,-1.3183,0.8288,0.7648,0.4097,9.1536,1.0188,0.6461,0.6146,-0.9683,0.63,2.3107,9.0466,0.1957,1.4157,-0.3821,-0.4315,-5.5084,7.0164,0.999416,0,1698371517,2
-0.4323,-0.2165,-0.0429,0.5905,-1.5103,0.8298,0.4727,0.5029,9.3158,0.9293,0.6464,0.6739,-0.7424,0.6091,2.3156,9.1275,0.2467,1.2937,-0.1439,-0.3905,-5.6019,7.1136,0.999546,0,1698371517,2
-0.432,-0.1562,-0.0374,0.5812,-1.7685,0.8586,0.1854,0.6239,9.5175,0.7375,0.6355,0.7182,-0.5277,0.5955,2.3107,9.1789,0.3323,1.2041,0.0625,-0.3282,-5.6673,7.1739,0.999647,0,1698371517,3
-0.4308,-0.0615,-0.0322,0.5619,-1.9997,0.8845,-0.0719,0.7214,9.7441,0.5148,0.6305,0.7518,-0.3243,0.5839,2.2867,9.2068,0.4286,1.0808,0.2415,-0.2675,-5.6997,7.1895,0.999726,0,1698371517,4
-0.4273,0.079,-0.0276,0.5542,-1.9927,0.7886,-0.2974,0.7071,9.3589,0.6375,0.6453,0.789,-0.1297,0.561,2.2576,9.1996,0.5392,0.9544,0.3985,-0.212,-5.6989,7.1655,0.999787,0,1698371517,5
-0.4208,0.2374,-0.0227,0.5825,-1.9353,0.681,-0.5312,0.6599,8.4414,1.0211,0.6807,0.829,0.0641,0.5106,2.2579,9.1686,0.6361,0.8392,0.5681,-0.1743,-5.6609,7.1137,0.999831,0,1698371517,6
-0.4111,0.4078,-0.017,0.612,-2.0952,0.7567,-0.7513,0.7558,8.0867,1.1291,0.727,0.8566,0.2555,0.4623,2.2358,9.1287,0.6851,0.6908,0.7416,-0.1859,-5.622,7.0441,0.999859,0,1698371517,7
-0.3982,0.6362,-0.0113,0.6221,-2.1998,0.9348,-0.9554,0.9136,8.0747,1.0579,0.7697,0.8636,0.4588,0.4302,2.1582,9.0983,0.6873,0.539,0.8943,-0.2569,-5.6153,6.9796,0.999874,0,1698371517,7
-0.3821,0.9406,-0.0055,0.649,-2.0961,1.1115,-1.1352,1.0103,7.8896,1.0547,0.8054,0.84,0.6805,0.3766,2.0966,9.0894,0.654,0.3571,1.035,-0.3655,-5.6102,6.9412,0.999875,0,1698371517,8
-0.3639,1.1569,0.0011,0.6945,-1.8221,1.3127,-1.2443,1.1354,7.5701,1.1971,0.8383,0.7698,0.9048,0.3158,2.0701,9.0881,0.6009,0.1111,1.1708,-0.4887,-5.6056,6.9283,0.999877,0,1698371517,9
-0.3455,1.2905,0.0084,0.7316,-1.4108,1.4851,-1.294,1.2542,7.3966,1.4796,0.857,0.6521,1.136,0.249,2.077,9.1111,0.5248,-0.213,1.3137,-0.595,-5.6261,6.9412,0.999887,0,1698371517,10
-0.3279,1.3796,0.0158,0.74,-0.9302,1.6054,-1.2815,1.2832,7.2495,1.8241,0.8579,0.4985,1.3719,0.1718,2.1174,9.1814,0.4221,-0.6215,1.4631,-0.6519,-5.6567,6.9833,0.999902,0,1698371517,11
-0.3119,1.4038,0.0231,0.7024,-0.4095,1.6673,-1.2036,1.2335,7.248,2.1537,0.8672,0.3255,1.5994,0.1,2.1863,9.302,0.2964,-1.0854,1.6174,-0.652,-5.6893,7.0551,0.999923,0,1698371517,11
-0.2989,1.3455,0.0291,0.6376,-0.1014,1.7768,-1.1534,1.0669,7.5198,2.3057,0.9025,0.1639,1.817,0.048,2.2704,9.4748,0.1459,-1.5573,1.7646,-0.6019,-5.7539,7.1447,0.999941,0,1698371517,12
-0.2907,1.1628,0.0337,0.5911,-0.1364,1.947,-1.0896,0.8546,8.6391,1.9796,0.9588,0.0341,2.0261,-0.0105,2.3596,9.6822,-0.0212,-1.9674,1.8772,-0.5244,-5.8648,7.2555,0.999954,0,1698371517,13
-0.2881,0.9177,0.0375,0.5608,0.0443,1.9846,-0.9838,0.5962,9.9094,1.4472,1.0197,-0.0812,2.2158,-0.0897,2.457,9.9096,-0.1954,-2.2612,1.9433,-0.4365,-6.0004,7.3983,0.999964,0,1698371517,14
-0.289,0.6677,0.0401,0.489,0.4318,1.9039,-0.9017,0.1987,9.9873,1.1759,1.0593,-0.1929,2.3665,-0.1576,2.5636,10.1186,-0.3571,-2.4791,1.9802,-0.354,-6.1375,7.5567,0.999972,0,1698371517,15
-0.2912,0.4499,0.0412,0.3855,0.6365,1.8395,-0.8711,-0.1108,10.0457,0.9599,1.0559,-0.3002,2.47,-0.209,2.676,10.297,-0.4759,-2.6271,2.0149,-0.2985,-6.2603,7.7118,0.999978,0,1698371517,15
-0.294,0.2751,0.0415,0.2969,0.729,1.8628,-0.8823,-0.1959,10.4952,0.6672,1.0107,-0.421,2.5222,-0.2455,2.7666,10.4692,-0.5494,-2.6781,2.0537,-0.2946,-6.3535,7.8569,0.999983,0,1698371517,16
-0.2969,0.1598,0.0416,0.2451,0.7693,1.955,-0.8884,-0.1343,10.7665,0.4795,0.9662,-0.5446,2.5295,-0.2567,2.8409,10.6302,-0.6056,-2.6309,2.1086,-0.3494,-6.4339,7.9945,0.999987,0,1698371517,17
-0.2988,0.1084,0.0416,0.2048,0.7947,2.0855,-0.8804,0.0556,10.8704,0.4221,0.9521,-0.6739,2.5225,-0.2392,2.9185,10.7983,-0.686,-2.5029,2.2066,-0.4473,-6.5042,8.1585,0.99999,0,1698371517,18
-0.2988,0.1117,0.0415,0.1625,0.9107,2.2174,-0.8401,0.2281,10.8973,0.5267,0.9693,-0.7956,2.5366,-0.1938,3.0009,11.0069,-0.8157,-2.3865,2.3236,-0.5818,-6.5828,8.3755,0.999992,0,1698371517,19
-0.298,0.1172,0.0412,0.1328,1.138,2.3336,-0.7739,0.3041,10.9196,0.8501,1.0065,-0.8918,2.5978,-0.1449,3.1087,11.2523,-1.0016,-2.3831,2.4316,-0.747,-6.7122,8.6573,0.999994,0,1698371517,20
-0.2955,0.1782,0.0409,0.1114,0.9106,2.2909,-0.7088,0.2464,11.7676,0.9398,1.0592,-0.9086,2.7101,-0.0768,3.2352,11.5379,-1.2202,-2.5269,2.5461,-0.9282,-6.9039,8.9983,0.999995,0,1698371517,20
-0.2898,0.3067,0.0396,0.0205,0.4067,2.4699,-0.5227,0.1224,12.7261,0.9128,1.1258,-0.7922,2.8749,0.0075,3.4276,11.8722,-1.4318,-2.8296,2.6998,-1.0673,-7.1301,9.4052,0.999996,0,1698371517,21
-0.2811,0.4609,0.0351,-0.1554,0.2224,2.6609,-0.2205,-0.2494,13.0144,1.5076,1.1528,-0.5952,3.0932,0.0266,3.732,12.193,-1.6063,-3.1439,2.9394,-1.1126,-7.3544,9.8356,0.999997,0,1698371517,22
-0.2712,0.5724,0.0263,-0.3841,0.3546,2.5613,0.1676,-0.9119,13.3086,2.3216,1.0629,-0.3493,3.3472,0.0041,4.0546,12.3933,-1.6822,-3.4085,3.2703,-1.0711,-7.5537,10.1902,0.999998,0,1698371517,23
-0.2628,0.5853,0.0128,-0.6669,0.8159,2.4234,0.7076,-1.5572,13.2535,2.956,0.8048,-0.0671,3.6194,-0.0297,4.3481,12.4313,-1.5938,-3.6915,3.6552,-0.9396,-7.6484,10.4285,0.999998,0,1698371517,24
