Time,q,qdot,pelv_gyro_x,pelv_gyro_y,pelv_gyro_z,pelv_acc_x,pelv_acc_y,pelv_acc_z,leg_gyro_x,leg_gyro_y,leg_gyro_z,leg_acc_x,leg_acc_y,leg_acc_z,Label
59,-0.0249272,-0.492188,0.127663,0.10029,-0.888216,0.416583,7.32891,0.202535,0.0777799,0.116396,-0.405139,-0.851513,6.82849,-0.686189,0
69,-0.0214758,-0.296875,0.185711,0.0598583,-0.870019,0.360525,8.13452,0.356265,0.0739731,0.0463463,-0.599507,-0.330488,7.32549,-0.972716,1
80,-0.0118884,1.44531,0.234198,0.0164557,-0.802497,0.460448,8.74684,0.471358,0.0917232,-0.0103157,-0.790257,0.662768,8.37762,-0.969719,2
89,-0.00613594,0.40625,0.279838,-0.0283343,-0.71439,0.678033,9.13801,0.216618,0.129571,-0.0652153,-0.911106,2.6441,9.78528,-0.815361,3
99,-0.00383496,0.203125,0.330627,-0.0606321,-0.63198,0.895269,9.47037,-0.289978,0.188663,-0.143399,-0.895178,5.42831,10.5849,-1.08707,4
109,-0.00498545,-1.53906,0.389429,-0.0697029,-0.542656,0.947355,10.2257,-0.597052,0.275108,-0.300617,-0.736407,8.58302,10.8618,-1.54606,4
119,-0.00651943,0.640625,0.389429,-0.0697029,-0.542656,0.947355,10.2257,-0.597052,0.275108,-0.300617,-0.736407,8.58302,10.8618,-1.54606,5
129,-0.0118884,-0.21875,0.437273,-0.0504803,-0.42143,0.901166,11.5559,-0.587538,0.380563,-0.496508,-0.47535,11.6666,11.1907,-1.49079,6
139,-0.0249272,-1.25781,0.434809,-0.000220871,-0.28429,0.837302,13.0581,-0.434958,0.473534,-0.551633,-0.166107,13.7159,11.698,-0.787144,7
149,-0.0371991,-1.89062,0.36915,0.0641183,-0.148061,0.844673,14.285,-0.361707,0.519578,-0.450637,0.137013,13.8082,12.243,0.0979397,8
159,-0.054073,-1.36719,0.266405,0.11744,-0.000695992,1.17777,14.8186,-0.521907,0.498426,-0.315275,0.372346,12.3365,12.3805,0.975908,9
170,-0.0663448,-0.65625,0.144467,0.151952,0.13816,1.69683,14.4932,-0.661333,0.426142,-0.185903,0.501549,10.1069,11.9511,1.89468,10
179,-0.0674953,0.257812,0.00973348,0.166349,0.228587,2.04348,13.6283,-0.41695,0.329023,-0.0732493,0.525775,7.50409,11.3017,2.57119,11
190,-0.0667283,0.015625,-0.11618,0.162466,0.266858,2.18033,12.7208,0.0962078,0.329023,-0.0732493,0.525775,7.50409,11.3017,2.57119,12
199,-0.0636604,0.75,-0.11618,0.162466,0.266858,2.18033,12.7208,0.0962078,0.222576,0.00618691,0.468566,5.13607,10.8013,2.77618,13
210,-0.0609759,0.632812,-0.209016,0.155013,0.266308,2.20457,12.0686,0.483674,0.12618,0.0709949,0.36458,3.26249,10.5767,2.163,13
219,-0.049471,1.67188,-0.254378,0.159827,0.232787,2.05895,11.8053,0.540357,0.0763896,0.142699,0.249813,2.12247,10.3736,0.510532,14
229,-0.0383496,0.296875,-0.254261,0.19125,0.157117,1.43224,11.9923,0.602676,0.13516,0.22233,0.148341,1.97308,10.1963,-2.11259,15
239,-0.0364321,-0.101562,-0.21624,0.246784,0.0369307,0.161432,12.6038,0.787576,0.298316,0.296383,0.0383342,2.71648,10.6525,-5.10884,16
249,-0.0406506,-0.53125,-0.144333,0.295472,-0.0820899,-1.43354,13.6824,0.505897,0.48822,0.33238,-0.0679375,4.81954,12.0948,-6.39343,17
260,-0.0506215,-1.92969,-0.0721785,0.322732,-0.148321,-2.93705,15.1901,-0.376546,0.638312,0.353317,-0.0998388,7.07203,14.1365,-4.95396,18
269,-0.0625099,-1.75,-0.0721785,0.322732,-0.148321,-2.93705,15.1901,-0.376546,0.638312,0.353317,-0.0998388,7.07203,14.1365,-4.95396,19
280,-0.0644273,1.17969,-0.0491287,0.338384,-0.141386,-3.81515,16.3799,-1.47907,0.695685,0.421936,-0.0658394,6.80967,15.5288,-2.25671,20
289,-0.0605924,0.171875,-0.103157,0.346585,-0.0759942,-3.71322,16.0416,-2.35439,0.661871,0.573516,-0.0441953,3.72333,15.1246,0.275666,21
299,-0.048704,2.51562,-0.239314,0.357819,-0.0228716,-3.10409,13.8244,-2.30614,0.568237,0.769921,-0.102854,-0.851807,13.2809,1.92403,21
309,-0.0164903,4.65625,-0.404008,0.375282,-0.0335708,-1.93307,10.1778,-1.80755,0.395349,0.922849,-0.290249,-5.66298,11.1336,2.75577,22
319,0.0371991,7.74219,-0.497293,0.381724,-0.0957238,-0.216557,6.48217,-2.03245,0.142424,1.02367,-0.599473,-8.94849,9.28007,2.83637,23
329,0.104311,5.75781,-0.477486,0.38534,-0.182119,0.829367,4.59539,-2.47474,-0.1158,1.14368,-0.931265,-9.22351,7.86102,1.58045,24
339,0.181777,10.0938,-0.477486,0.38534,-0.182119,0.829367,4.59539,-2.47474,-0.1158,1.14368,-0.931265,-9.22351,7.86102,1.58045,25
349,0.261928,7.15625,-0.382386,0.419337,-0.260584,0.889411,4.63418,-2.24275,-0.305289,1.39426,-1.18887,-7.04984,7.02983,-0.830399,26
359,0.343229,8.96875,-0.259728,0.491959,-0.310586,0.46787,5.68285,-1.57647,-0.371077,1.75859,-1.3572,-3.84008,6.95154,-3.36786,27
369,0.421462,9.78906,-0.138283,0.579813,-0.334162,-0.225836,7.19166,-1.13308,-0.287318,2.02563,-1.44112,-0.711903,7.63064,-4.96357,28
379,0.500079,7.30469,-0.0361937,0.65424,-0.342974,-1.0323,8.7383,-1.12856,-0.1005,2.06679,-1.44762,1.23121,8.85631,-5.24591,29
389,0.576011,10.1797,0.0348528,0.684457,-0.349489,-1.82803,10.0101,-1.32458,0.13704,1.91773,-1.4032,1.65039,10.2047,-4.65387,29
399,0.652327,7.78125,0.0725579,0.644674,-0.356838,-2.5731,10.8418,-1.50148,0.368273,1.60541,-1.33466,1.20635,11.2218,-3.71535,30
409,0.732861,8.92188,0.0872966,0.534406,-0.359467,-3.20294,11.0812,-1.61135,0.499721,1.1538,-1.26135,0.562303,11.6143,-2.77866,31
419,0.814929,9.82812,0.0872966,0.534406,-0.359467,-3.20294,11.0812,-1.61135,0.499721,1.1538,-1.26135,0.562303,11.6143,-2.77866,32
429,0.901599,6.67188,0.0956509,0.378636,-0.348922,-3.57708,10.7181,-1.66198,0.503014,0.687101,-1.19324,0.0490594,11.317,-2.06628,33
439,0.987119,8.17969,0.107734,0.212088,-0.322367,-3.59596,9.97521,-1.58306,0.433256,0.318787,-1.1323,-0.045484,10.49,-1.61268,34
449,1.07494,9.23438,0.123641,0.0615297,-0.28188,-3.26395,9.0591,-1.35898,0.349955,0.0651582,-1.09242,0.131036,9.40697,-1.37994,35
462,1.16391,11.0234,0.142183,-0.0617197,-0.232376,-2.7329,8.17268,-1.06844,0.277373,-0.0970131,-1.07274,0.367945,8.39603,-1.40244,36
469,1.25518,9.01562,0.163656,-0.156779,-0.181687,-2.14422,7.55781,-0.85891,0.229646,-0.202963,-1.04869,0.829568,7.71711,-1.50609,37
479,1.3453,8.72656,0.186236,-0.224142,-0.13863,-1.55452,7.32832,-0.818733,0.221063,-0.29764,-1.02177,1.61101,7.44174,-1.55754,38
489,1.43964,8.46094,0.186236,-0.224142,-0.13863,-1.55452,7.32832,-0.818733,0.221063,-0.29764,-1.02177,1.61101,7.44174,-1.55754,38
499,1.52938,11.0234,0.20734,-0.266273,-0.107153,-1.02963,7.44491,-0.893857,0.24359,-0.395901,-1.00403,2.35321,7.48671,-1.62987,39
509,1.62104,7.96094,0.223525,-0.287411,-0.0876803,-0.649218,7.7759,-0.952438,0.30874,-0.510424,-0.990461,2.40211,7.6904,-1.77555,40
519,1.71384,11.2734,0.232665,-0.294404,-0.081312,-0.373638,8.07316,-0.967815,0.426939,-0.667651,-0.955718,1.72681,7.92338,-2.0649,41
529,1.80972,10.1172,0.235964,-0.297338,-0.0861424,-0.133691,8.27273,-0.975189,0.538155,-0.814867,-0.901918,0.999247,8.17528,-2.34652,42
539,1.90214,12.1172,0.233947,-0.300132,-0.104753,0.0253593,8.47966,-0.965378,0.587514,-0.921302,-0.873704,0.542883,8.44551,-2.50196,43
549,1.99878,7.49219,0.225878,-0.300722,-0.139534,0.126554,8.66753,-0.999488,0.579992,-1.01866,-0.893214,0.284929,8.67251,-2.48859,44
560,2.09772,9.72656,0.210351,-0.297987,-0.186174,0.252142,8.80561,-1.06486,0.531329,-1.09226,-0.966111,0.122249,8.77844,-2.29337,45
569,2.19552,8,0.210351,-0.297987,-0.186174,0.252142,8.80561,-1.06486,0.531329,-1.09226,-0.966111,0.122249,8.77844,-2.29337,46
579,2.29676,10.8906,0.18577,-0.292541,-0.239935,0.455009,8.88523,-1.05801,0.469708,-1.15322,-1.07432,0.0610507,8.81077,-2.03252,46
589,2.39608,11.1641,0.150541,-0.28501,-0.294909,0.734369,8.91533,-0.940761,0.420642,-1.23804,-1.18251,0.246344,8.90492,-1.5206,47
599,2.50001,12.1641,0.103715,-0.274014,-0.350309,0.93302,8.92434,-0.757027,0.363386,-1.31084,-1.27894,0.442674,9.02995,-0.967771,48
609,2.60317,10.4609,0.050222,-0.262549,-0.403545,0.969816,8.84678,-0.673521,0.271663,-1.30745,-1.36017,0.543563,9.10339,-0.854665,49
619,2.71055,10.3906,-0.00316522,-0.258631,-0.438728,0.917352,8.71532,-0.691522,0.169098,-1.21349,-1.42334,0.991494,9.0766,-0.977418,50
629,2.82138,11.5703,-0.055126,-0.267225,-0.445552,0.717514,8.70268,-0.589573,0.0906394,-1.05061,-1.46223,1.86983,8.96233,-1.11236,51
639,2.92838,13.5547,-0.055126,-0.267225,-0.445552,0.717514,8.70268,-0.589573,0.0906394,-1.05061,-1.46223,1.86983,8.96233,-1.11236,52
649,3.03691,9.27344,-0.102669,-0.294286,-0.422859,0.331195,8.78451,-0.411784,0.0411629,-0.868359,-1.45744,2.8249,8.89179,-1.39575,53
659,3.13892,11.0312,-0.136388,-0.346059,-0.363133,-0.0705504,8.87369,-0.418744,0.0112302,-0.730548,-1.39796,3.81313,8.92514,-1.73542,54
669,3.23671,9.53906,-0.150951,-0.414455,-0.266122,-0.400754,9.07777,-0.584292,-0.00807635,-0.653075,-1.29303,4.715,9.03755,-1.96139,54
679,3.33105,9.77344,-0.148008,-0.481549,-0.149536,-0.679566,9.39393,-0.721465,-0.0224694,-0.589751,-1.15671,5.2364,9.20273,-2.20803,55
689,3.41312,9.82031,-0.129877,-0.536402,-0.0300575,-0.790043,9.66927,-0.82293,-0.0305732,-0.501507,-1.00468,5.56832,9.3424,-2.44871,56
699,3.49173,6.92969,-0.102246,-0.570555,0.0807822,-0.649259,9.90359,-0.851263,-0.0315935,-0.424961,-0.845664,5.7024,9.46429,-2.64028,57
709,3.55999,6.67188,-0.0721442,-0.57931,0.175548,-0.286444,10.1491,-0.808499,-0.0290549,-0.405551,-0.682356,5.5527,9.64127,-2.80611,58
719,3.62365,6.1875,-0.0450109,-0.562546,0.254861,0.267347,10.3665,-0.81654,-0.0238358,-0.413157,-0.523837,5.40137,9.85507,-2.77776,59
729,3.68655,6.14844,-0.0275295,-0.520601,0.321762,0.891921,10.5379,-0.885485,-0.0171211,-0.388073,-0.380346,5.16886,10.1078,-2.61221,60
739,3.73717,3.01562,-0.0275295,-0.520601,0.321762,0.891921,10.5379,-0.885485,-0.0171211,-0.388073,-0.380346,5.16886,10.1078,-2.61221,61
749,3.78357,5.73438,-0.0216162,-0.465811,0.380848,1.3305,10.7384,-0.963218,-0.0132723,-0.318185,-0.254175,4.86813,10.4257,-2.46562,62
759,3.82461,3.96094,-0.0188473,-0.411785,0.434173,1.34368,11.1065,-0.942455,-0.0163633,-0.221193,-0.134759,4.53927,10.8523,-2.52243,63
769,3.84493,2.21094,-0.00182988,-0.363816,0.487889,1.00504,11.6732,-0.815611,-0.0260326,-0.126063,-0.00756528,4.17943,11.3949,-2.80719,63
779,3.8434,0.0234375,0.0437807,-0.321936,0.546649,0.546426,12.2215,-0.824626,-0.0488937,-0.0830447,0.147161,4.24985,11.9567,-2.945,64
789,3.83458,-2.69531,0.123641,-0.275931,0.601315,0.0209784,12.5702,-1.09185,-0.107969,-0.0856294,0.351383,4.55062,12.5246,-2.75718,65
799,3.80275,-4.89844,0.24349,-0.214421,0.649553,-0.71828,12.9574,-1.20797,-0.219564,-0.108723,0.600864,4.68306,13.1551,-2.35957,66
809,3.74446,-8.07812,0.400111,-0.13353,0.705677,-1.62378,13.4873,-0.873797,-0.371717,-0.193223,0.88196,5.14931,13.6614,-1.72015,67
819,3.65587,-12.3047,0.400111,-0.13353,0.705677,-1.62378,13.4873,-0.873797,-0.371717,-0.193223,0.88196,5.14931,13.6614,-1.72015,68
829,3.56191,-10.5078,0.558419,-0.0269662,0.774484,-2.24334,13.6721,-0.586128,-0.539847,-0.335929,1.19998,5.84375,13.8176,-0.801501,69
839,3.45722,-12.0625,0.659655,0.10973,0.842022,-2.41194,13.3585,-0.621526,-0.700061,-0.412949,1.52901,5.88868,13.6756,0.23142,70
849,3.34984,-12.0938,0.668145,0.256438,0.900231,-2.43424,12.8614,-0.661504,-0.835698,-0.344948,1.81501,4.96791,13.4378,1.22574,71
859,3.24323,-10.1484,0.590467,0.377392,0.953263,-2.5381,12.3446,-0.571263,-0.941649,-0.187573,2.03443,3.27064,13.2575,2.0035,71
869,3.137,-11.9062,0.446798,0.441794,1.00215,-2.70007,11.9294,-0.328526,-1.0083,-0.00812381,2.17604,0.986713,13.0907,2.28294,72
879,3.02693,-10.4062,0.258861,0.428027,1.02987,-2.87795,11.6272,0.0212561,-1.02548,0.125881,2.23798,-1.51809,12.8483,1.70186,73
889,2.9092,-11.8516,0.0654781,0.333211,1.02089,-2.97814,11.2618,0.190046,-0.989491,0.160329,2.24287,-3.33271,12.3874,0.0430454,74
900,2.79147,-13.4453,0.0654781,0.333211,1.02089,-2.97814,11.2618,0.190046,-0.989491,0.160329,2.24287,-3.33271,12.3874,0.0430454,75
909,2.66722,-14.1875,-0.0900616,0.182026,0.982981,-2.83693,10.8185,0.0364293,-0.882917,0.126501,2.2117,-3.68428,11.5669,-2.29203,76
919,2.54488,-13.1484,-0.186169,0.0191849,0.927149,-2.53644,10.4732,-0.129929,-0.685894,0.0875016,2.15942,-2.8854,10.6524,-4.42244,77
929,2.41296,-13.8984,-0.213496,-0.112619,0.858302,-2.19946,10.2757,-0.0888984,-0.4222,0.0445235,2.10797,-1.89601,10.097,-5.56605,78
939,2.27797,-13.6875,-0.172325,-0.189622,0.778602,-1.71945,10.1159,-0.125021,-0.160588,-0.0330139,2.07197,-1.21531,10.0445,-5.43263,79
949,2.14298,-16.8516,-0.0889123,-0.209178,0.690285,-0.992671,9.97332,-0.401625,0.0431742,-0.116595,2.04427,-0.680732,10.3637,-4.27958,79
959,2.00032,-13.9922,-0.00477248,-0.182803,0.601391,-0.101772,9.93184,-0.735969,0.172633,-0.172075,2.01053,-0.0120261,10.7702,-2.5924,80
969,1.86916,-15.1641,0.0431697,-0.126664,0.515717,0.716466,9.9496,-0.978867,0.231959,-0.182877,1.96241,0.690456,10.9527,-0.90477,81
979,1.73532,-17.2344,0.0431697,-0.126664,0.515717,0.716466,9.9496,-0.978867,0.231959,-0.182877,1.96241,0.690456,10.9527,-0.90477,82
989,1.60301,-12.5234,0.0361014,-0.0586016,0.43177,1.22969,9.90949,-1.04938,0.241231,-0.124599,1.89292,1.14866,10.8075,0.340156,83
999,1.47032,-11.6562,-0.0196822,0.00727885,0.35075,1.41162,9.75006,-0.95611,0.201761,-0.0234133,1.80153,1.39581,10.3321,1.05854,84
1009,1.34185,-15.3203,-0.108914,0.0663547,0.266906,1.31927,9.45869,-0.661312,0.117375,0.0750578,1.68219,1.39639,9.57781,1.35989,85
1019,1.21722,-14.4609,-0.215675,0.115714,0.174414,1.00672,9.05277,-0.117329,0.0344222,0.140788,1.51352,1.04345,8.75563,1.29294,86
1029,1.0968,-11.1641,-0.316799,0.15212,0.080686,0.688882,8.53277,0.410058,-0.03192,0.15581,1.30008,0.613786,8.04816,0.949409,87
1039,0.975614,-12.4688,-0.392049,0.179181,-0.00483384,0.601773,7.89819,0.610568,-0.0952266,0.139627,1.08449,0.40654,7.47448,0.488805,88
1049,0.861716,-11.9375,-0.433358,0.206863,-0.0771555,0.761947,7.24187,0.513736,-0.131903,0.131987,0.937563,0.466925,6.96889,0.0355314,88
1059,0.751652,-12.6719,-0.433358,0.206863,-0.0771555,0.761947,7.24187,0.513736,-0.131903,0.131987,0.937563,0.466925,6.96889,0.0355314,89
1070,0.644273,-9.21875,-0.443381,0.241138,-0.137412,0.943272,6.72025,0.431486,-0.114574,0.158991,0.896122,0.490125,6.5096,-0.301878,90
1079,0.538429,-12.4297,-0.428797,0.278825,-0.194556,0.941586,6.37779,0.586347,-0.0554414,0.218739,0.900599,0.134772,6.13055,-0.533861,91
1089,0.441788,-9.64844,-0.39264,0.313199,-0.256134,0.829023,6.12885,0.856277,0.011175,0.280799,0.884314,-0.467922,5.87457,-0.731033,92
1099,0.348598,-8.05469,-0.335127,0.336319,-0.318521,0.7898,5.93897,0.967501,0.0682987,0.323024,0.823662,-1.00412,5.76826,-0.758097,93
1109,0.262311,-9.64844,-0.261516,0.342992,-0.37912,0.800102,5.84238,0.884696,0.122879,0.354601,0.710929,-1.50344,5.76555,-0.608255,94
1119,0.179476,-8.99219,-0.183228,0.330821,-0.448612,0.712048,5.81605,0.807451,0.162616,0.366379,0.560275,-2.10634,5.78583,-0.507058,95
1129,0.105078,-7.42969,-0.183228,0.330821,-0.448612,0.712048,5.81605,0.807451,0.162616,0.366379,0.560275,-2.10634,5.78583,-0.507058,96
1139,0.0371991,-6.50781,-0.107461,0.297349,-0.536367,0.536385,5.82922,0.757521,0.175871,0.337902,0.388601,-2.55797,5.80581,-0.458767,96
1149,-0.0222428,-4.09375,-0.0369758,0.246626,-0.63791,0.365857,5.92215,0.682847,0.18239,0.280765,0.201638,-2.58825,5.90469,-0.351486,97
1159,-0.0625099,-5.07031,0.0249385,0.188673,-0.740573,0.253409,6.18675,0.577612,0.186986,0.215801,0.00823938,-2.28502,6.20843,-0.271516,98
1169,-0.0755487,-0.148438,0.0784806,0.131968,-0.827754,0.231705,6.70421,0.343373,0.180569,0.150862,-0.183705,-1.8382,6.7147,-0.334664,99
1179,-0.0743982,-1.10938,0.12849,0.0802485,-0.874029,0.280435,7.44498,0.0572185,0.16467,0.0817341,-0.377775,-1.30626,7.21715,-0.454524,0
1189,-0.0720973,0.328125,0.174908,0.0363818,-0.868284,0.359213,8.14344,-0.0675829,0.143232,0.00687212,-0.577741,-0.748439,7.48938,-0.605837,1
1199,-0.0682623,0.679688,0.214994,-0.000279884,-0.828047,0.488031,8.51577,-0.0326475,0.143232,0.00687212,-0.577741,-0.748439,7.48938,-0.605837,2
1209,-0.0625099,-0.0859375,0.214994,-0.000279884,-0.828047,0.488031,8.51577,-0.0326475,0.115676,-0.056754,-0.768434,-0.0628576,7.51046,-0.91624,3
1219,-0.0575244,0.40625,0.256155,-0.0341498,-0.772072,0.692289,8.54027,0.0273058,0.0811578,-0.0871605,-0.911108,1.58409,7.39847,-1.34659,3
1229,-0.054073,0.03125,0.300368,-0.0548525,-0.714979,0.858295,8.53105,0.234549,0.058157,-0.0571937,-0.966876,4.58641,7.33593,-1.88213,4
1239,-0.052539,-0.0078125,0.342053,-0.049705,-0.657865,0.839354,9.03791,0.695906,0.0852197,-0.00552824,-0.91493,7.94554,7.6189,-2.48302,5
1249,-0.053306,-0.617188,0.383042,-0.0219924,-0.576772,0.714517,10.2037,1.03227,0.186849,-0.0730547,-0.748885,10.7969,8.35117,-2.81434,6
1259,-0.0544564,-0.617188,0.41066,0.0244266,-0.456587,0.667747,11.6449,0.959521,0.340414,-0.24551,-0.495918,12.9008,9.29687,-2.63502,7
1269,-0.0586749,-0.140625,0.397654,0.0850147,-0.312979,0.789222,12.8576,0.584869,0.493979,-0.327123,-0.210699,14.1199,10.0593,-2.15935,8
1279,-0.0659613,-0.132812,0.337174,0.144549,-0.163742,1.06708,13.5601,0.0838359,0.609173,-0.270057,0.057662,14.1804,10.4081,-1.67298,9
1289,-0.0686458,-0.03125,0.337174,0.144549,-0.163742,1.06708,13.5601,0.0838359,0.609173,-0.270057,0.057662,14.1804,10.4081,-1.67298,10
1299,-0.0690293,0.625,0.251998,0.189733,-0.0106042,1.43723,13.7671,-0.383189,0.663453,-0.171842,0.264288,12.8178,10.4422,-1.03799,10
1309,-0.0690293,0.132812,0.16737,0.219057,0.13551,1.83497,13.4772,-0.664366,0.652023,-0.082351,0.379423,10.4895,10.311,-0.117513,11
1319,-0.0686458,0.640625,0.0904435,0.236214,0.249366,2.16327,12.8702,-0.650423,0.587568,-0.00724345,0.40208,8.02959,10.2403,0.94331,12
1329,-0.0671118,0.953125,0.0214552,0.249507,0.311177,2.32409,12.3643,-0.39597,0.483566,0.0555819,0.357908,5.9281,10.4323,1.83404,13
1339,-0.0648108,0.0546875,-0.0363092,0.267737,0.315199,2.31719,12.1492,-0.114747,0.366631,0.123778,0.282744,4.21811,10.7722,2.04493,14
1349,-0.0605924,0.257812,-0.0747082,0.292999,0.272332,2.13651,12.1958,0.068223,0.281813,0.201629,0.195809,2.71471,11.2726,1.35417,15
1359,-0.04717,2.42969,-0.0747082,0.292999,0.272332,2.13651,12.1958,0.068223,0.281813,0.201629,0.195809,2.71471,11.2726,1.35417,16
1369,-0.0348981,1.55469,-0.0861515,0.325618,0.188335,1.62893,12.4141,0.127519,0.263147,0.291731,0.0814749,1.25077,11.9139,-0.526171,17
1379,-0.0306797,0.0234375,-0.0689915,0.362772,0.067729,0.672761,12.7214,-0.11356,0.319829,0.383186,-0.0781351,0.653634,12.4362,-3.44635,17
1389,-0.0333642,-0.601562,-0.0284951,0.393372,-0.0481366,-0.643217,13.3096,-0.651088,0.441929,0.423022,-0.216793,2.31491,13.1354,-5.31675,18
1399,-0.0410341,-1.34375,0.0100876,0.409425,-0.108836,-2.03459,14.299,-1.16692,0.577753,0.416377,-0.231497,5.72754,14.264,-4.40756,19
1409,-0.049471,-0.523438,0.000442919,0.418089,-0.0990643,-3.12932,15.2942,-1.35319,0.652308,0.450494,-0.12235,7.8416,15.1762,-1.8091,20
1419,-0.04717,0.0625,-0.0896066,0.428959,-0.0354459,-3.58926,15.4973,-1.24919,0.637263,0.582912,-0.00143106,6.19142,14.8319,0.538849,21
1429,-0.0429516,1.02344,-0.251164,0.446731,0.0295682,-3.32239,14.1241,-1.09087,0.557801,0.775513,0.016301,1.54464,12.9566,1.85377,22
1439,-0.0226263,3.79688,-0.430687,0.466808,0.0382435,-2.29922,11.0961,-1.1272,0.421799,0.953653,-0.120555,-3.64524,10.4752,2.05981,23
1449,0.0168738,5.32812,-0.430687,0.466808,0.0382435,-2.29922,11.0961,-1.1272,0.421799,0.953653,-0.120555,-3.64524,10.4752,2.05981,23
1459,0.0724808,6.96875,-0.548804,0.474547,-0.0163708,-0.870216,7.66919,-1.70425,0.220651,1.06229,-0.37887,-6.81759,8.31972,1.38985,24
1469,0.138826,8.35156,-0.558377,0.479229,-0.104888,0.0260694,5.5497,-2.45584,-0.00112535,1.11955,-0.647049,-7.12318,6.8277,-0.0332687,25
1479,0.214374,10.1641,-0.470546,0.5085,-0.1904,0.143684,5.13793,-2.62819,-0.178425,1.31943,-0.873964,-5.72161,6.14812,-2.08924,26
1489,0.288773,6.95312,-0.330023,0.569844,-0.248023,-0.159751,5.86956,-2.16864,-0.258439,1.73705,-1.08089,-3.7697,6.38153,-4.08753,27
1499,0.367773,6.60938,-0.18291,0.646352,-0.279429,-0.756351,7.25324,-1.57818,-0.204025,2.07032,-1.23916,-1.97088,7.46277,-5.22012,28
1509,0.443321,8.375,-0.0600438,0.708315,-0.29739,-1.56236,8.87939,-1.27104,-0.0458273,2.08861,-1.31757,-0.553862,9.03205,-5.15309,29
1519,0.526157,7.10938,0.0185373,0.722185,-0.310418,-2.44804,10.3524,-1.24585,0.153715,1.90025,-1.33759,0.420002,10.5439,-4.22528,30
1530,0.608225,9.72656,0.0185373,0.722185,-0.310418,-2.44804,10.3524,-1.24585,0.153715,1.90025,-1.33759,0.420002,10.5439,-4.22528,30
1539,0.696045,8.04688,0.0513257,0.666974,-0.316385,-3.25182,11.2753,-1.35381,0.353439,1.66693,-1.33047,0.813074,11.5301,-3.05936,31
1549,0.785783,10.3281,0.0582242,0.546334,-0.304769,-3.84184,11.4026,-1.47361,0.486452,1.38774,-1.29908,0.811859,11.7466,-2.10341,32
1559,0.877056,8.16406,0.060231,0.381662,-0.269581,-4.10931,10.8228,-1.5443,0.500109,1.0099,-1.23673,0.677618,11.2449,-1.52931,33
1569,0.968711,7.61719,0.0689158,0.203127,-0.213378,-3.96462,9.81782,-1.55506,0.425672,0.617076,-1.16153,0.468776,10.2645,-1.3217,34
1579,1.0642,8.89844,0.086354,0.0360817,-0.14632,-3.52804,8.76721,-1.41349,0.319109,0.306823,-1.09453,0.2947,9.13198,-1.47313,35
1589,1.15662,9.07031,0.109378,-0.107158,-0.0814787,-2.9583,7.93242,-1.14712,0.221702,0.0615263,-1.0388,0.27534,8.179,-1.81207,36
1599,1.2548,8.46875,0.138103,-0.222834,-0.0265823,-2.3665,7.42948,-0.87668,0.163506,-0.14641,-0.991216,0.284999,7.5736,-2.1054,37
1609,1.35106,9.72656,0.138103,-0.222834,-0.0265823,-2.3665,7.42948,-0.87668,0.163506,-0.14641,-0.991216,0.284999,7.5736,-2.1054,37
1619,1.45115,12.0078,0.174165,-0.312951,0.00998986,-1.876,7.2745,-0.667248,0.149169,-0.326999,-0.961244,0.174922,7.35913,-2.37096,38
1629,1.55009,9.44531,0.214759,-0.382383,0.0239891,-1.4552,7.33044,-0.612141,0.168804,-0.489191,-0.946262,0.185377,7.47396,-2.55182,39
1639,1.64635,10.7109,0.252428,-0.434608,0.0183863,-1.09616,7.56753,-0.681245,0.219687,-0.62458,-0.933772,0.431175,7.7269,-2.54417,40
1649,1.74452,12.1094,0.279929,-0.472217,-0.00596519,-0.836217,7.90236,-0.790209,0.296431,-0.734832,-0.938497,0.685342,7.95979,-2.4125,41
1659,1.84308,9.36719,0.295067,-0.498282,-0.0420365,-0.580132,8.14211,-0.936683,0.381998,-0.823347,-0.954418,0.964549,8.16499,-2.09873,42
1669,1.94778,10.6094,0.297916,-0.512099,-0.0821642,-0.312415,8.32528,-1.01863,0.46143,-0.884488,-0.958254,1.23644,8.40462,-1.5979,43
1679,2.03867,11.3125,0.297916,-0.512099,-0.0821642,-0.312415,8.32528,-1.01863,0.46143,-0.884488,-0.958254,1.23644,8.40462,-1.5979,43
1689,2.13607,10.5781,0.2883,-0.513061,-0.127662,-0.116143,8.56025,-0.970992,0.516942,-0.933568,-0.961046,1.40642,8.71316,-1.14079,44
1699,2.22965,11.9297,0.26622,-0.50586,-0.17411,0.0453368,8.86156,-0.903772,0.533294,-0.999755,-0.981013,1.46003,9.08928,-0.695394,45
1709,2.3236,10.0391,0.23025,-0.492388,-0.217899,0.240672,9.18617,-0.835356,0.526597,-1.09795,-1.00663,1.28858,9.47559,-0.195018,46
1719,2.41449,11.25,0.181508,-0.4735,-0.262822,0.500138,9.3835,-0.741681,0.520999,-1.22889,-1.02545,1.12009,9.73128,0.0644751,47
1729,2.50883,12.0312,0.125395,-0.453501,-0.307272,0.760035,9.42849,-0.635696,0.522354,-1.39264,-1.04891,1.172,9.76298,-0.0466152,48
1739,2.60087,11.1328,0.0682305,-0.434952,-0.348565,0.839102,9.42894,-0.572672,0.520084,-1.57484,-1.07598,1.40138,9.58632,-0.357532,49
1749,2.69253,7.57812,0.016773,-0.419536,-0.37842,0.735374,9.35169,-0.662173,0.477575,-1.69993,-1.10197,2.01927,9.24173,-0.632341,50
1759,2.78572,8.3125,-0.0264611,-0.408871,-0.384911,0.549995,9.17512,-0.758832,0.37878,-1.7035,-1.12483,2.88953,8.88667,-0.737013,50
1769,2.87929,10.1562,-0.0264611,-0.408871,-0.384911,0.549995,9.17512,-0.758832,0.37878,-1.7035,-1.12483,2.88953,8.88667,-0.737013,51
1779,2.96979,10.875,-0.0616269,-0.408851,-0.365006,0.299573,9.00406,-0.679547,0.265765,-1.49614,-1.12771,3.50343,8.71601,-0.710239,52
1789,3.05876,9.69531,-0.0885303,-0.429416,-0.314816,0.0478276,8.9661,-0.518333,0.180698,-0.957667,-1.11652,3.86396,8.68962,-0.755371,53
1799,3.14927,10.7266,-0.108404,-0.471461,-0.235641,-0.139748,9.07866,-0.431717,0.112831,-0.318416,-1.09264,4.12151,8.68729,-1.22753,54
1809,3.23402,7.89844,-0.119356,-0.528563,-0.135819,-0.214758,9.22362,-0.478165,0.0402146,-0.0120856,-1.02105,4.33218,8.70065,-1.98723,55
1819,3.31801,10.4531,-0.118109,-0.593782,-0.0241943,-0.184229,9.37286,-0.520409,-0.0264612,-0.075907,-0.894945,4.37261,8.77391,-2.7064,56
1829,3.39126,5.85156,-0.101745,-0.661516,0.0880766,-0.0944598,9.58562,-0.558036,-0.0658908,-0.279495,-0.738,4.30503,8.91141,-3.37759,57
1839,3.4576,6.46875,-0.0711186,-0.719785,0.190857,0.0874902,9.84864,-0.700428,-0.0726496,-0.510194,-0.56783,4.39159,9.08205,-3.90529,57
1849,3.51973,5.99219,-0.0332787,-0.74951,0.277256,0.425928,10.1278,-0.829648,-0.0529811,-0.706606,-0.404873,4.51261,9.32606,-4.07268,58
1859,3.56728,4.35156,-0.0332787,-0.74951,0.277256,0.425928,10.1278,-0.829648,-0.0529811,-0.706606,-0.404873,4.51261,9.32606,-4.07268,59
1869,3.61292,6.14062,0.00400622,-0.739956,0.343979,0.919779,10.4172,-0.897354,-0.0171864,-0.801267,-0.266152,4.7128,9.67837,-3.56929,60
1879,3.66277,5.53906,0.029546,-0.687702,0.386867,1.4145,10.7281,-0.849087,0.0167664,-0.768135,-0.155157,4.76933,10.1232,-2.5844,61
1889,3.70074,3.77344,0.0367046,-0.608355,0.411194,1.70115,11.0838,-0.671161,0.0327991,-0.636592,-0.0725962,4.45916,10.6094,-1.75437,62
1899,3.72221,1.4375,0.0330408,-0.532781,0.42835,1.69218,11.421,-0.543481,0.0219471,-0.473253,-0.00624658,4.29621,11.0583,-1.35292,63
1909,3.72758,-1.22656,0.0342291,-0.471518,0.440693,1.41853,11.7125,-0.485615,-0.0128833,-0.291018,0.0694172,4.50269,11.4287,-1.39621,63
1919,3.72528,-0.0234375,0.0575815,-0.417907,0.448474,0.935677,12.0439,-0.466719,-0.0623058,-0.121269,0.176187,4.72451,11.7646,-1.8507,64
1929,3.71991,-0.328125,0.117331,-0.372674,0.462266,0.28364,12.4221,-0.603668,-0.0623058,-0.121269,0.176187,4.72451,11.7646,-1.8507,65
1939,3.70189,-4.20312,0.117331,-0.372674,0.462266,0.28364,12.4221,-0.603668,-0.130677,-0.063544,0.330923,5.0258,12.1298,-2.32739,66
1949,3.65357,-6.60938,0.219895,-0.334116,0.495516,-0.472837,12.7206,-0.951025,-0.230617,-0.10835,0.536092,5.24628,12.7683,-2.31311,67
1959,3.58607,-9.19531,0.364513,-0.290905,0.55308,-1.2299,12.8442,-1.59474,-0.370007,-0.188648,0.785025,5.05236,13.6795,-1.92098,68
1969,3.49672,-11.1094,0.530374,-0.231253,0.638338,-1.83847,12.8541,-2.46735,-0.531731,-0.341855,1.07623,5.07563,14.15,-1.41226,69
1979,3.40161,-7.44531,0.66453,-0.140387,0.737548,-2.21703,12.7142,-3.05004,-0.689288,-0.557092,1.39849,5.16919,13.9628,-0.597666,70
1989,3.29653,-10.0078,0.720748,-0.0215279,0.828303,-2.46606,12.3862,-3.01243,-0.846785,-0.681991,1.70789,4.55732,13.6471,0.783258,70
1999,3.19452,-9.57031,0.683665,0.0976655,0.906602,-2.73147,12.0729,-2.41314,-1.00638,-0.607131,1.94911,3.02548,13.4526,2.37068,71
2009,3.08753,-9.25,0.553733,0.181259,0.965659,-3.00921,11.817,-1.53352,-1.14327,-0.402721,2.09944,0.699214,13.2642,3.15991,72
2019,2.97976,-8.29688,0.553733,0.181259,0.965659,-3.00921,11.817,-1.53352,-1.14327,-0.402721,2.09944,0.699214,13.2642,3.15991,73
2029,2.86548,-12.75,0.351367,0.190243,0.989299,-3.20105,11.5268,-0.791899,-1.21713,-0.210664,2.16331,-1.50958,12.8592,2.52047,74
2039,2.74583,-9.8125,0.123563,0.108242,0.970183,-3.33135,11.323,-0.310406,-1.19008,-0.0983372,2.15696,-2.71388,12.1723,0.45499,75
2049,2.62426,-11,-0.0733982,-0.0433742,0.91474,-3.35519,11.2201,-0.139326,-1.04582,-0.0084201,2.11119,-2.92312,11.438,-2.51719,76
2059,2.49924,-11.0078,-0.200546,-0.219136,0.843571,-2.99953,10.992,-0.443359,-0.800434,0.0841219,2.06623,-2.43052,10.9256,-5.18034,77
2069,2.36655,-12.9141,-0.246145,-0.361845,0.779018,-2.11958,10.5739,-1.08902,-0.514728,0.0638408,2.04771,-1.45389,10.6845,-6.32753,77
2079,2.23156,-13.2891,-0.223254,-0.427806,0.720883,-0.938092,10.1995,-1.59271,-0.25902,-0.0732852,2.04102,-0.354987,10.6837,-5.63282,78
2089,2.09427,-15.1172,-0.163546,-0.415034,0.652045,0.144721,10.1455,-1.57697,-0.0759365,-0.231999,2.02236,0.540057,10.927,-3.67286,79
2100,1.95736,-15.0625,-0.106171,-0.351512,0.562682,0.859172,10.4083,-1.22025,0.0165421,-0.39291,1.98901,1.08779,11.2775,-1.45142,80
2109,1.81931,-12.8438,-0.106171,-0.351512,0.562682,0.859172,10.4083,-1.22025,0.0165421,-0.39291,1.98901,1.08779,11.2775,-1.45142,81
2119,1.68355,-12.1641,-0.082216,-0.268129,0.455436,1.1585,10.7065,-0.940348,0.0323498,-0.481276,1.938,1.19975,11.54,0.116563,82
2129,1.55009,-16.4766,-0.0999372,-0.188819,0.342855,1.21598,10.7786,-0.940904,0.00610423,-0.417119,1.8633,0.973796,11.5781,0.673537,83
2139,1.4151,-15.4375,-0.151839,-0.1246,0.238533,1.27348,10.4811,-1.17969,-0.0513236,-0.274805,1.77542,0.613892,11.2583,0.533214,83
2149,1.29353,-10.1797,-0.226349,-0.0741956,0.149853,1.38593,9.82696,-1.39679,-0.140055,-0.167817,1.65808,0.218243,10.5566,0.223675,84
2159,1.16775,-11.3516,-0.308764,-0.0342692,0.0789485,1.47707,8.97305,-1.39981,-0.243416,-0.13445,1.47668,-0.0433955,9.56929,0.0622064,85
2169,1.04503,-9.96094,-0.387644,-0.000462843,0.0192889,1.47016,8.03853,-1.13592,-0.345382,-0.147207,1.25776,-0.0146234,8.39404,0.0612717,86
2179,0.927677,-11.2969,-0.452436,0.0353829,-0.0404724,1.31424,7.13326,-0.579316,-0.345382,-0.147207,1.25776,-0.0146234,8.39404,0.0612717,87
2189,0.811861,-11,-0.452436,0.0353829,-0.0404724,1.31424,7.13326,-0.579316,-0.424427,-0.157804,1.08029,0.156161,7.17494,-0.0215838,88
2199,0.701031,-10.9766,-0.48826,0.0778745,-0.10519,1.11849,6.3466,0.115053,-0.434262,-0.12011,0.99426,0.211672,6.09655,-0.373504,89
2209,0.595186,-13.8906,-0.48559,0.125332,-0.172924,1.03727,5.68313,0.688257,-0.350494,-0.0116199,0.963052,0.0937715,5.31243,-0.856855,90
2219,0.493559,-11.4531,-0.44637,0.172666,-0.238545,1.06697,5.18626,0.970812,-0.219737,0.12559,0.929673,-0.0732731,4.87017,-1.18548,90
2229,0.399603,-8.92188,-0.380707,0.212974,-0.296194,1.06174,4.98032,1.0091,-0.0999923,0.233571,0.868562,-0.248819,4.67811,-1.2431,91
2239,0.306413,-7.71094,-0.301355,0.23973,-0.349528,0.924764,5.03616,0.948758,-0.0171935,0.288919,0.770576,-0.590571,4.67271,-1.12203,92
2249,0.225879,-7.0625,-0.216921,0.248254,-0.408584,0.79459,5.15484,0.786207,-0.0171935,0.288919,0.770576,-0.590571,4.67271,-1.12203,93
2259,0.147262,-6.78125,-0.216921,0.248254,-0.408584,0.79459,5.15484,0.786207,0.0303049,0.300425,0.640409,-1.13494,4.85508,-0.919636,94
2269,0.0759322,-6.11719,-0.133778,0.236104,-0.478683,0.734602,5.33297,0.562495,0.0586206,0.284626,0.486334,-1.735,5.18557,-0.72598,95
2279,0.0118884,-5.67188,-0.0581881,0.201658,-0.562565,0.65029,5.70494,0.377111,0.0744958,0.243476,0.313149,-2.14475,5.60242,-0.586447,96
2289,-0.0406506,-3.01562,0.00695527,0.14994,-0.657831,0.518029,6.26191,0.247285,0.0805029,0.187381,0.1233,-2.17681,6.15709,-0.447118,97
2299,-0.0732478,-1.67969,0.0618656,0.0922122,-0.749257,0.382405,6.97175,0.147302,0.0769151,0.13263,-0.076027,-1.90616,6.90479,-0.361243,97
2309,-0.0782332,1.46875,0.0618656,0.0922122,-0.749257,0.382405,6.97175,0.147302,0.0769151,0.13263,-0.076027,-1.90616,6.90479,-0.361243,98
2319,-0.0774662,0.109375,0.109572,0.0350073,-0.810376,0.309909,7.87499,0.0255535,0.0638728,0.0775519,-0.281555,-1.45591,7.66227,-0.391748,99
2329,-0.0759322,0,0.149754,-0.0171068,-0.826307,0.344813,8.71508,-0.0896843,0.045369,0.0163497,-0.48828,-0.751988,8.13048,-0.466482,0
2339,-0.0736312,0.945312,0.1789,-0.0556372,-0.811971,0.485241,9.12173,-0.111364,0.0232316,-0.0159573,-0.685456,0.237728,8.26245,-0.599569,1
2349,-0.0701798,0.03125,0.206744,-0.0777594,-0.78695,0.675949,9.18653,-0.0349017,0.000489559,0.00204743,-0.851839,1.68028,8.21055,-0.881266,2
2359,-0.0697963,0.0078125,0.248357,-0.088128,-0.752649,0.861952,9.24877,0.0869921,-0.00689331,0.0149419,-0.939963,4.09785,8.10605,-1.25131,3
2369,-0.0701798,-0.46875,0.300379,-0.0862095,-0.701889,0.935649,9.68085,0.267383,0.0243339,-0.0343803,-0.907424,7.34596,8.26434,-1.54142,4
2379,-0.0713303,-0.421875,0.346436,-0.0679814,-0.620824,0.843289,10.7231,0.425177,0.108674,-0.18621,-0.743425,10.6556,8.94256,-1.5636,4
2389,-0.0724808,-1.53125,0.346436,-0.0679814,-0.620824,0.843289,10.7231,0.425177,0.108674,-0.18621,-0.743425,10.6556,8.94256,-1.5636,5
2399,-0.0743982,-0.953125,0.362972,-0.0305938,-0.498003,0.688367,12.2013,0.463416,0.232724,-0.361352,-0.480005,13.1098,9.99041,-1.26839,6
2409,-0.0763157,-0.335938,0.32985,0.0228229,-0.337459,0.622272,13.6197,0.340909,0.352538,-0.401224,-0.188555,13.9031,11.0042,-0.788667,7
2419,-0.0782332,0.523438,0.250215,0.0781137,-0.154008,0.765532,14.4323,0.0205538,0.42394,-0.316154,0.0682882,13.1786,11.5195,-0.201631,8
2429,-0.0790002,0,0.141682,0.12059,0.0276746,1.10949,14.3805,-0.273824,0.434405,-0.194256,0.261082,11.5213,11.3492,0.425747,9
2439,-0.0786167,0.726562,0.0239102,0.143537,0.180376,1.53045,13.619,-0.319286,0.398496,-0.0795848,0.372226,9.37137,10.7154,0.943406,10
2449,-0.0782332,0.0546875,-0.0830628,0.151235,0.285753,1.90285,12.538,-0.142065,0.334691,0.00182745,0.397658,7.26525,10.0057,1.23571,11
2459,-0.0766992,0.0234375,-0.162745,0.157462,0.338173,2.15824,11.5779,0.135664,0.266142,0.0552905,0.364605,5.58101,9.53995,1.23766,12
2469,-0.0728643,0.226562,-0.162745,0.157462,0.338173,2.15824,11.5779,0.135664,0.266142,0.0552905,0.364605,5.58101,9.53995,1.23766,12
2479,-0.0694128,0.242188,-0.205743,0.176761,0.339743,2.24812,11.0289,0.347326,0.221115,0.113365,0.303171,4.03996,9.44386,0.662999,13
2489,-0.0605924,0.359375,-0.209558,0.215796,0.295632,2.07677,10.9834,0.423344,0.239045,0.194485,0.223833,2.10982,9.88318,-0.85262,14
2499,-0.0563739,0.984375,-0.176532,0.268703,0.206146,1.5691,11.2706,0.177159,0.345898,0.294568,0.114609,0.278576,10.8535,-3.21219,15
2509,-0.0575244,0.320312,-0.114435,0.325077,0.0735795,0.63016,11.818,-0.523193,0.515925,0.38377,-0.0249604,0.210803,12.0409,-5.466,16
2519,-0.0617429,-0.734375,-0.0424534,0.374915,-0.065581,-0.782587,12.9829,-1.21049,0.698562,0.412237,-0.132522,2.72215,13.4807,-5.90399,17
2529,-0.0732478,-0.976562,0.003735,0.408715,-0.162357,-2.36004,14.7316,-1.60105,0.82119,0.405193,-0.151925,5.99366,15.0808,-3.98477,18
2539,-0.0801507,-1.1875,-0.00923432,0.425913,-0.18282,-3.43703,16.1468,-1.92427,0.818663,0.441066,-0.114026,7.12448,15.9119,-1.09827,19
2549,-0.0797672,0.257812,-0.0994112,0.433827,-0.12846,-3.50687,15.9947,-2.08716,0.818663,0.441066,-0.114026,7.12448,15.9119,-1.09827,19
2559,-0.0736312,0.34375,-0.0994112,0.433827,-0.12846,-3.50687,15.9947,-2.08716,0.720362,0.559785,-0.0860205,5.13443,15.1866,1.44291,20
2569,-0.0609759,1.97656,-0.25886,0.43988,-0.0632005,-2.58239,13.7682,-1.91077,0.580748,0.728212,-0.116452,1.01599,13.2204,3.00538,21
2579,-0.0341312,2.53125,-0.421821,0.442993,-0.0398,-1.10456,10.1848,-1.44138,0.383329,0.831262,-0.230702,-1.66733,10.6428,3.28147,22
2589,0.0111214,6.50781,-0.523163,0.447818,-0.0661186,0.0259528,6.68683,-0.357096,0.141864,0.849206,-0.42872,-0.699809,8.03012,2.28619,23
2599,0.0720973,4.70312,-0.546121,0.472017,-0.135311,0.277838,4.60844,1.1326,-0.076276,0.920652,-0.677251,0.667698,6.16461,0.162908,24
2609,0.142661,8.8125,-0.48258,0.513906,-0.21526,0.0308608,4.34579,1.89647,-0.230252,1.17327,-0.925912,0.698497,5.41542,-2.55762,25
2619,0.218209,7.1875,-0.353654,0.559129,-0.276388,-0.257842,5.38239,1.51586,-0.278251,1.59309,-1.14165,0.618562,5.74987,-4.92377,26
2629,0.295292,8.03906,-0.207486,0.606809,-0.313119,-0.555837,7.08295,0.450875,-0.196288,1.95388,-1.29328,0.778032,7.0024,-6.11193,27
2639,0.373142,9.27344,-0.207486,0.606809,-0.313119,-0.555837,7.08295,0.450875,-0.196288,1.95388,-1.29328,0.778032,7.0024,-6.11193,27
2649,0.447156,7.74219,-0.0825404,0.652595,-0.332006,-0.974477,8.92153,-0.745216,-0.028644,2.07398,-1.3658,0.994431,8.72945,-5.9168,28
2659,0.528074,9.17188,-0.00241397,0.675693,-0.34811,-1.52108,10.4299,-1.68507,0.159574,1.99537,-1.38064,0.980098,10.3575,-4.79884,29
2669,0.608992,7.10156,0.0362521,0.656015,-0.366917,-2.11568,11.3121,-2.24772,0.333352,1.79993,-1.36654,0.736716,11.4278,-3.47396,30
2679,0.692594,9.14062,0.0563305,0.589029,-0.3764,-2.62277,11.428,-2.42507,0.447153,1.5031,-1.33629,0.443283,11.73,-2.46278,31
2689,0.77773,9.92188,0.076107,0.483022,-0.368519,-2.9192,10.8866,-2.27338,0.460158,1.10635,-1.29106,0.2019,11.2866,-1.8265,32
2699,0.864784,9.58594,0.0994549,0.356788,-0.345199,-2.95915,10.0086,-1.8944,0.397777,0.699095,-1.24857,0.113222,10.3478,-1.49851,33
2709,0.952604,8.97656,0.122444,0.231721,-0.310798,-2.80478,9.10342,-1.38516,0.301012,0.372691,-1.20708,0.411089,9.31465,-1.51264,34
2720,1.04004,10.9453,0.122444,0.231721,-0.310798,-2.80478,9.10342,-1.38516,0.217754,0.121495,-1.22086,1.00225,7.94103,-1.18621,35
2729,1.12671,8.32031,0.142668,0.121433,-0.271569,-2.50705,8.35135,-0.964536,0.217754,0.121495,-1.22086,1.00225,7.94103,-1.18621,35
2739,1.21798,10.9531,0.161488,0.0362821,-0.232314,-2.08157,7.77568,-0.818203,0.20652,-0.0269229,-1.31897,1.4388,6.2575,-0.380871,36
2749,1.30926,9,0.181894,-0.021394,-0.194059,-1.62187,7.45769,-0.872948,0.25145,-0.0731766,-1.36451,1.58192,5.43486,-0.244908,37
2759,1.40398,9.19531,0.204117,-0.0584574,-0.159996,-1.23422,7.43406,-0.991749,0.304594,-0.168183,-1.29563,1.67484,5.70443,-0.885574,38
2769,1.4964,8.46094,0.225759,-0.0793749,-0.1345,-0.929065,7.54399,-1.11715,0.36106,-0.345681,-1.18813,1.77692,6.35837,-1.54619,39
2779,1.59113,8.125,0.245275,-0.0878935,-0.119492,-0.713029,7.71346,-1.15761,0.417278,-0.519981,-1.09513,1.63337,7.06727,-2.09059,40
2789,1.68355,8.80469,0.262504,-0.092024,-0.114714,-0.548102,7.91272,-1.13039,0.470159,-0.686948,-0.992073,1.40971,7.68254,-2.51205,41
2799,1.78172,10.8203,0.275083,-0.0954754,-0.118567,-0.360516,8.13685,-1.12276,0.506559,-0.806277,-0.893516,1.27004,8.12376,-2.53322,42
2810,1.87683,8,0.278206,-0.0952707,-0.134218,-0.159632,8.36739,-1.11209,0.506559,-0.806277,-0.893516,1.27004,8.12376,-2.53322,42
2819,1.9727,11.6953,0.278206,-0.0952707,-0.134218,-0.159632,8.36739,-1.11209,0.529739,-0.859741,-0.869539,1.14747,8.42933,-2.1102,43
2829,2.06858,11.1719,0.268198,-0.0915449,-0.161741,0.0451731,8.56465,-1.10063,0.57323,-0.925316,-0.911856,1.28252,8.64869,-1.33087,44
2839,2.16177,11.0391,0.243058,-0.0860408,-0.196498,0.27304,8.78124,-1.09613,0.617315,-1.02208,-0.983628,1.50736,8.84456,-0.458394,45
2849,2.25381,11.6641,0.204857,-0.0792567,-0.236592,0.54715,8.97429,-1.08558,0.602253,-1.10931,-1.06889,1.48156,9.06743,0.0428035,46
2859,2.34623,11.8438,0.157436,-0.0710695,-0.280401,0.786287,9.09273,-1.02926,0.507264,-1.13986,-1.1551,1.26409,9.2514,0.0808753,47
2869,2.43865,10.6797,0.103887,-0.0601265,-0.329597,0.836221,9.14387,-0.922971,0.369025,-1.07297,-1.23479,0.923243,9.34773,-0.312187,48
2879,2.52877,9.65625,0.0498821,-0.0498302,-0.38001,0.690434,9.11644,-0.900255,0.238009,-0.920507,-1.30132,0.934972,9.31877,-0.91567,49
2889,2.62196,9.11719,0.0498821,-0.0498302,-0.38001,0.690434,9.11644,-0.900255,0.238009,-0.920507,-1.30132,0.934972,9.31877,-0.91567,50
2899,2.71323,10.4531,-0.00106329,-0.0463805,-0.417205,0.374172,9.10988,-0.976337,0.14317,-0.72886,-1.34768,1.61391,9.17574,-1.30436,50
2909,2.80489,8.0625,-0.0484132,-0.0555584,-0.429481,-0.0813373,9.15865,-1.05886,0.0874872,-0.555088,-1.35825,2.55314,9.05161,-1.38073,51
2919,2.89386,7.71094,-0.0907507,-0.0854467,-0.405906,-0.526143,9.18497,-1.06922,0.0580681,-0.442125,-1.31884,3.36206,9.02901,-1.2891,52
2929,2.9859,7.59375,-0.128214,-0.141263,-0.344262,-0.908934,9.2423,-0.948981,0.0402388,-0.396076,-1.23225,3.70599,9.11961,-1.33647,53
2939,3.06759,8.52344,-0.158258,-0.224958,-0.254058,-1.26281,9.39298,-0.875083,0.0237453,-0.406,-1.11213,3.75613,9.26021,-1.57704,54
2949,3.15195,10.2188,-0.17484,-0.328648,-0.145092,-1.57346,9.59329,-0.934098,0.00117242,-0.434357,-0.974837,3.78069,9.35469,-1.84822,55
2959,3.22405,5.98438,-0.172107,-0.435774,-0.0286727,-1.76078,9.75582,-0.98867,-0.0298982,-0.415902,-0.832564,3.74363,9.34103,-2.27009,56
2969,3.29922,7.14844,-0.149395,-0.534016,0.0834961,-1.68473,9.8018,-1.0111,-0.0568211,-0.332964,-0.689992,3.75706,9.18629,-2.87192,57
2979,3.35866,6.32812,-0.149395,-0.534016,0.0834961,-1.68473,9.8018,-1.0111,-0.0568211,-0.332964,-0.689992,3.75706,9.18629,-2.87192,58
2989,3.41196,5.39844,-0.112566,-0.612356,0.184261,-1.25924,9.7386,-1.02818,-0.0641896,-0.268433,-0.54651,3.89694,8.96125,-3.38675,58
2999,3.47141,6.1875,-0.0681897,-0.658476,0.270593,-0.476792,9.65387,-1.03202,-0.0489787,-0.267764,-0.40691,4.25762,8.80123,-3.63668,59
3009,3.53047,5.02344,-0.0223907,-0.665559,0.341162,0.533301,9.68093,-1.02149,-0.0153941,-0.265301,-0.288173,4.51276,8.91595,-3.72671,60
3019,3.58185,5.25781,0.0229619,-0.643706,0.399753,1.46576,9.95495,-1.02618,0.0251434,-0.253703,-0.198791,4.49502,9.45274,-3.6526,61
3029,3.63209,5.625,0.067298,-0.605559,0.44683,2.00416,10.5598,-1.01998,0.0567054,-0.26599,-0.12543,4.32985,10.3372,-3.49067,62
3039,3.67351,3.17188,0.112004,-0.552762,0.481161,2.11557,11.4296,-1.02221,0.0715617,-0.28207,-0.0543203,4.04642,11.3723,-3.39186,63
3049,3.68616,-1.01562,0.112004,-0.552762,0.481161,2.11557,11.4296,-1.02221,0.0715617,-0.28207,-0.0543203,4.04642,11.3723,-3.39186,64
3059,3.68041,-1.80469,0.166172,-0.483287,0.505622,1.94121,12.2546,-1.16133,0.0595251,-0.304833,0.0342936,4.27459,12.3092,-3.15427,65
3069,3.67082,-0.820312,0.243089,-0.390353,0.517962,1.43453,12.8363,-1.41038,-0.000564633,-0.317508,0.171479,5.14442,13.0395,-2.72046,65
3079,3.64053,-4.10938,0.357704,-0.271821,0.520324,0.528141,13.2412,-1.69642,-0.122775,-0.297749,0.378605,5.33443,13.7041,-2.80417,66
3089,3.58569,-6.33594,0.512892,-0.14732,0.541143,-0.453705,13.5076,-2.20272,-0.29101,-0.277275,0.644615,4.68337,14.2646,-3.46871,67
3099,3.50285,-8.75,0.671435,-0.0274092,0.607714,-1.16455,13.6201,-2.91417,-0.444067,-0.310192,0.947987,4.73561,14.4012,-3.35307,68
3109,3.4135,-9.98438,0.765146,0.112921,0.70182,-1.74598,13.5187,-3.29001,-0.539351,-0.393538,1.2838,5.32521,14.0673,-2.12912,69
3119,3.31226,-12.2031,0.755844,0.275223,0.797924,-2.3413,13.1424,-2.94976,-0.603213,-0.409372,1.61661,5.21825,13.5478,-0.466028,70
3130,3.2229,-10.9844,0.6593,0.420085,0.896487,-2.89179,12.5899,-2.03453,-0.603213,-0.409372,1.61661,5.21825,13.5478,-0.466028,71
3139,3.12664,-10.1016,0.6593,0.420085,0.896487,-2.89179,12.5899,-2.03453,-0.663744,-0.304559,1.89198,3.97487,13.0941,1.27949,72
3149,3.02924,-13.7578,0.503928,0.507975,0.990832,-3.35741,12.008,-0.915004,-0.715366,-0.14117,2.08017,1.57729,12.7461,2.55224,73
3159,2.92723,-12.1406,0.308381,0.507606,1.05381,-3.7113,11.4713,0.062625,-0.743944,0.00220616,2.17104,-1.33318,12.4601,2.91209,73
3169,2.82483,-12.6406,0.104903,0.408478,1.06237,-3.94813,11.0223,0.605893,-0.748621,0.0540675,2.17972,-3.87689,12.1994,2.15674,74
3179,2.71899,-11.2266,-0.0577124,0.230595,1.0231,-3.93345,10.5854,0.527277,-0.729426,-0.00567832,2.14305,-5.17033,11.7587,0.276433,75
3189,2.60931,-9.95312,-0.151288,0.0159107,0.964834,-3.5636,10.1693,0.0923194,-0.659551,-0.137174,2.09181,-4.77506,11.0574,-1.98888,76
3199,2.49656,-12.5781,-0.181508,-0.18557,0.904032,-3.03332,9.96464,-0.220202,-0.51581,-0.277619,2.04262,-3.41202,10.4696,-3.62885,77
3209,2.37729,-11.6172,-0.164074,-0.337357,0.840117,-2.47463,9.99881,-0.37568,-0.322844,-0.388465,2.00918,-1.94197,10.375,-4.16402,78
3219,2.25227,-16.3672,-0.164074,-0.337357,0.840117,-2.47463,9.99881,-0.37568,-0.322844,-0.388465,2.00918,-1.94197,10.375,-4.16402,79
3229,2.12802,-14.7891,-0.115469,-0.427279,0.776373,-1.75536,10.1744,-0.595195,-0.137961,-0.454442,1.99469,-0.659583,10.7716,-3.53478,80
3239,1.99763,-11.5781,-0.0604969,-0.459042,0.717047,-0.873587,10.5023,-0.825622,-0.00771076,-0.467685,1.98287,0.359944,11.3685,-2.01744,81
3249,1.86916,-16.4453,-0.0290617,-0.443686,0.6518,-0.0639677,10.9191,-0.903412,0.0497262,-0.430422,1.95507,0.973087,11.8225,-0.335466,81
3259,1.74107,-16.7344,-0.0388315,-0.399541,0.565503,0.512178,11.1867,-0.910379,0.0395895,-0.355825,1.90498,1.00678,11.9881,0.805255,82
3269,1.61605,-10.5938,-0.0859998,-0.345034,0.458106,0.876285,11.1268,-1.03776,-0.019154,-0.261617,1.83409,0.59876,11.8416,1.21962,83
3279,1.48605,-13.8281,-0.157691,-0.289229,0.341327,1.13822,10.6582,-1.28702,-0.124963,-0.160691,1.74677,0.085856,11.3062,1.15151,84
3289,1.36218,-11.1562,-0.242737,-0.237062,0.227579,1.34427,9.8452,-1.43594,-0.26727,-0.0780955,1.6264,-0.312886,10.4374,0.954511,85
3299,1.23908,-13.2188,-0.242737,-0.237062,0.227579,1.34427,9.8452,-1.43594,-0.26727,-0.0780955,1.6264,-0.312886,10.4374,0.954511,86
3309,1.12288,-9.75,-0.328647,-0.192519,0.127627,1.4232,8.93038,-1.34079,-0.387253,-0.0296034,1.44283,-0.457698,9.40559,0.76519,87
3319,1.00208,-11.6719,-0.40463,-0.154172,0.0436067,1.3303,8.05879,-1.03173,-0.443663,0.00851458,1.20743,-0.378145,8.24524,0.449183,88
3329,0.888177,-9.625,-0.467031,-0.119375,-0.0347496,1.10232,7.21069,-0.532001,-0.450189,0.0328289,0.973245,-0.594562,7.02294,-0.0359306,88
3339,0.776196,-11.1328,-0.507357,-0.0871722,-0.113819,0.906732,6.3737,0.0129986,-0.443305,0.0186511,0.814529,-1.10583,5.94403,-0.571172,89
3349,0.667283,-11.6797,-0.513526,-0.0564167,-0.186775,0.892663,5.65797,0.368409,-0.409033,0.00916113,0.768148,-1.11756,5.15472,-1.03269,90
3359,0.563356,-10.5938,-0.487843,-0.0277807,-0.248335,0.929241,5.24494,0.573442,-0.304635,0.037024,0.779916,-0.70371,4.67437,-1.2812,91
3369,0.466331,-11.0469,-0.442074,-0.00420531,-0.306168,0.874477,5.16061,0.776774,-0.161217,0.0622462,0.782254,-0.540455,4.52391,-1.33765,92
3379,0.376977,-8.95312,-0.442074,-0.00420531,-0.306168,0.874477,5.16061,0.776774,-0.161217,0.0622462,0.782254,-0.540455,4.52391,-1.33765,93
3389,0.292608,-8.09375,-0.380691,0.00978755,-0.367097,0.832407,5.24803,0.87553,-0.0334509,0.0594956,0.743058,-0.658004,4.66796,-1.20605,94
3399,0.21284,-6.92188,-0.306444,0.0141529,-0.431126,0.883473,5.41422,0.81834,0.0703302,0.0527791,0.64489,-0.801742,4.937,-0.848231,95
3409,0.140743,-5.71875,-0.228775,0.0137974,-0.503801,0.989214,5.60962,0.749165,0.140144,0.0618575,0.49203,-1.06536,5.27349,-0.402871,96
3419,0.0793837,-5.55469,-0.15344,0.00892001,-0.591064,1.09525,5.81934,0.709456,0.155323,0.0670168,0.306244,-1.39184,5.65178,-0.0399653,96
3429,0.0256942,-6.4375,-0.0802708,0.00032844,-0.684601,1.11648,6.16687,0.632043,0.134597,0.0586064,0.107223,-1.32073,5.99941,0.128516,97
3439,-0.00766992,-1.86719,-0.0100964,-0.00542009,-0.763705,1.06712,6.70948,0.472378,0.108244,0.050881,-0.0901319,-0.737236,6.3524,0.0886175,98
3449,-0.0180243,-0.078125,-0.0100964,-0.00542009,-0.763705,1.06712,6.70948,0.472378,0.108244,0.050881,-0.0901319,-0.737236,6.3524,0.0886175,99
3459,-0.0172573,0.0859375,0.0558235,-0.00676333,-0.807391,1.03933,7.3859,0.299503,0.0823215,0.0371737,-0.278449,-0.0389072,6.69422,-0.143742,0
3470,-0.0157233,0.476562,0.118602,-0.00840608,-0.804816,1.07255,8.0468,0.180676,0.061063,-0.00187041,-0.463171,0.45732,6.97091,-0.597929,1
3479,-0.0134224,0.460938,0.180562,-0.0132612,-0.75944,1.21009,8.4641,0.146111,0.05018,-0.0705322,-0.63869,1.34573,7.11995,-1.23205,2
3489,-0.0134224,0,0.243449,-0.0154002,-0.688651,1.399,8.61665,0.271193,0.0524032,-0.144775,-0.76022,3.5883,7.1599,-1.74142,3
3499,-0.0138059,-0.179688,0.308183,-0.00199173,-0.611383,1.42575,8.93295,0.551838,0.0783366,-0.203509,-0.77168,6.94771,7.45514,-1.84117,4
3509,-0.0149563,-0.90625,0.370045,0.0318857,-0.523476,1.2389,9.88165,0.827082,0.128279,-0.251137,-0.648702,10.6457,8.27991,-1.53637,4
3519,-0.0195583,-1.74219,0.370045,0.0318857,-0.523476,1.2389,9.88165,0.827082,0.128279,-0.251137,-0.648702,10.6457,8.27991,-1.53637,5
3529,-0.0306797,-1.60156,0.406102,0.0870903,-0.409313,1.00402,11.3929,1.00639,0.197287,-0.262718,-0.404938,13.7726,9.527,-1.00988,6
3539,-0.0521555,-2.14062,0.389272,0.155508,-0.256987,0.96449,12.9665,0.980081,0.271182,-0.220659,-0.0943147,15.1994,10.8101,-0.354419,7
3549,-0.0747817,-1.07031,0.315338,0.219385,-0.071438,1.28987,13.971,0.530993,0.31408,-0.133205,0.206946,14.6797,11.5661,0.448437,8
3559,-0.0885876,-0.539062,0.193194,0.272816,0.104721,1.78544,14.0641,-0.0300996,0.319613,-0.00353512,0.434873,12.453,11.6189,1.19095,9
3569,-0.09434,-0.0078125,0.0437641,0.308984,0.232763,2.16749,13.4657,-0.212536,0.29366,0.12059,0.552407,9.21386,11.2419,1.7265,10
3579,-0.0939565,-0.921875,-0.0942527,0.322028,0.309475,2.33845,12.6216,-0.0497976,0.245886,0.200002,0.569201,6.00241,10.7429,1.8097,11
3589,-0.0912721,0.320312,-0.187083,0.320543,0.344381,2.27039,11.897,0.181471,0.245886,0.200002,0.569201,6.00241,10.7429,1.8097,12
3599,-0.0843691,2.19531,-0.187083,0.320543,0.344381,2.27039,11.897,0.181471,0.20664,0.249532,0.508127,3.20047,10.2926,0.838172,12
3609,-0.0648108,1.17188,-0.220539,0.316921,0.343121,2.08449,11.267,0.360951,0.210947,0.287211,0.388509,1.65097,9.86094,-1.17139,13
3619,-0.0433351,0.78125,-0.210509,0.331818,0.288779,1.5952,10.8407,0.847607,0.315147,0.331652,0.255396,1.66643,9.72736,-3.46238,14
3629,-0.0318302,0.507812,-0.175528,0.370759,0.170793,0.374542,11.2476,1.57063,0.506415,0.387601,0.104645,2.21628,10.5205,-5.00216,15
3639,-0.0322137,-0.015625,-0.112923,0.402656,0.0406741,-1.21952,12.5861,1.55675,0.683786,0.436231,-0.065393,3.49635,12.202,-4.94243,16
3649,-0.0341312,-1.22656,-0.0532444,0.409999,-0.0392221,-2.48112,14.2433,0.575554,0.789651,0.477428,-0.17598,5.25778,14.0147,-3.48798,17
3659,-0.0348981,-0.554688,-0.0529279,0.405485,-0.0603373,-3.10863,15.3917,-0.725484,0.811775,0.551956,-0.204893,5.58731,15.0672,-1.48881,18
3669,-0.0329807,0.867188,-0.133937,0.406479,-0.0557142,-3.08682,15.2699,-1.67236,0.754141,0.689065,-0.220023,3.58396,15.1251,0.431624,19
3679,-0.0172573,2.32812,-0.133937,0.406479,-0.0557142,-3.08682,15.2699,-1.67236,0.754141,0.689065,-0.220023,3.58396,15.1251,0.431624,19
3689,0.0195583,5.28125,-0.279514,0.425872,-0.0791093,-2.76162,13.7741,-1.73629,0.615622,0.845883,-0.28352,0.120922,14.4601,1.8973,20
3699,0.0751652,5.75,-0.436549,0.46312,-0.156405,-2.44771,11.5536,-1.09051,0.381916,0.947621,-0.419374,-3.10093,13.0038,2.56414,21
3709,0.149563,10.2266,-0.539075,0.509885,-0.25573,-2.0789,9.46769,-0.250802,0.0888791,0.971885,-0.647704,-4.89692,11.1007,2.17532,22
3719,0.235083,10.7812,-0.562847,0.561333,-0.342255,-1.64427,8.10297,0.509073,-0.128354,1.03993,-0.991209,-5.15888,9.38831,0.60836,23
3729,0.323671,8.07812,-0.524994,0.614619,-0.408706,-1.29671,7.59107,0.916551,-0.172406,1.28962,-1.37138,-4.17479,8.2096,-1.83297,24
3739,0.414176,10.2891,-0.446517,0.666481,-0.453462,-1.14385,7.74452,0.787082,-0.114407,1.62431,-1.63272,-2.317,7.74545,-4.14388,25
3749,0.505831,7.84375,-0.346294,0.715122,-0.476879,-1.26699,8.28451,0.323862,-0.0239273,1.85077,-1.7293,-0.513361,7.9402,-5.51983,26
3759,0.5902,9.28906,-0.346294,0.715122,-0.476879,-1.26699,8.28451,0.323862,-0.0239273,1.85077,-1.7293,-0.513361,7.9402,-5.51983,27
3769,0.678788,7.9375,-0.241802,0.746217,-0.480991,-1.70655,8.95775,-0.175285,0.0922597,1.92652,-1.71666,0.507693,8.59806,-5.85682,27
3779,0.769293,9.82812,-0.143746,0.735221,-0.463864,-2.36097,9.56875,-0.657264,0.209278,1.87557,-1.64409,0.932294,9.37611,-5.28089,28
3789,0.8644,10.3594,-0.0567764,0.672888,-0.425632,-2.9681,9.86509,-1.14014,0.306012,1.65699,-1.53416,1.00355,9.90541,-4.10995,29
3799,0.957973,10.0547,0.021581,0.5669,-0.368496,-3.30509,9.6442,-1.5307,0.363751,1.2635,-1.46277,0.0953146,10.0144,-2.67459,30
3809,1.0504,10.9219,0.0950664,0.429401,-0.29991,-3.41732,9.0543,-1.65002,0.401749,0.891598,-1.43889,-1.48716,9.65705,-1.76819,31
3819,1.14435,9.91406,0.163078,0.273054,-0.230095,-3.36461,8.35559,-1.52426,0.442033,0.594612,-1.34543,-1.91931,8.93811,-1.94482,32
3829,1.24138,8.1875,0.222954,0.114256,-0.163692,-3.11939,7.76236,-1.34878,0.442033,0.594612,-1.34543,-1.91931,8.93811,-1.94482,33
3839,1.3361,8.66406,0.222954,0.114256,-0.163692,-3.11939,7.76236,-1.34878,0.476085,0.165358,-1.18171,-0.971625,8.24884,-2.51125,34
3849,1.43581,9.88281,0.270136,-0.0300093,-0.105057,-2.728,7.41865,-1.22793,0.511247,-0.339396,-1.0115,0.436679,7.83966,-2.96634,35
3859,1.52862,11.3594,0.300274,-0.147909,-0.0551136,-2.24066,7.3114,-1.17991,0.519629,-0.741874,-0.881588,1.48401,7.72027,-3.09902,35
3869,1.62449,11.5781,0.312457,-0.233402,-0.0141371,-1.72759,7.39282,-1.11899,0.504144,-1.02642,-0.814974,1.65603,7.89513,-2.76814,36
3879,1.71998,10.0312,0.310922,-0.288338,0.0144722,-1.20625,7.51491,-1.04315,0.492853,-1.19975,-0.794603,1.38459,8.16958,-2.34181,37
3889,1.81547,11.0469,0.302359,-0.320212,0.0306974,-0.691549,7.65815,-1.00749,0.462245,-1.25226,-0.833113,1.12453,8.35663,-2.15311,38
3899,1.91134,10.1094,0.290231,-0.33563,0.0299462,-0.298886,7.93515,-0.982605,0.410595,-1.23158,-0.91214,0.943201,8.47988,-2.23899,39
3909,1.99878,9.89844,0.276056,-0.339321,0.00729133,-0.0383188,8.27275,-1.00231,0.365508,-1.18989,-0.944914,0.899862,8.58902,-2.42893,40
3919,2.0889,6.91406,0.276056,-0.339321,0.00729133,-0.0383188,8.27275,-1.00231,0.365508,-1.18989,-0.944914,0.899862,8.58902,-2.42893,41
3929,2.17826,9.00781,0.261402,-0.333634,-0.0318272,0.161921,8.62734,-1.06499,0.342376,-1.0819,-0.924309,1.00969,8.7289,-2.50346,42
3939,2.26531,9.55469,0.246126,-0.318358,-0.0786726,0.368597,8.96609,-1.08415,0.336527,-0.918151,-0.931886,1.15521,8.95089,-2.33577,42
3949,2.35045,8.90625,0.226934,-0.296523,-0.127401,0.591969,9.25913,-1.01092,0.330619,-0.796911,-0.978521,1.31336,9.25614,-2.00197,43
3959,2.4306,8.99219,0.199107,-0.274313,-0.179809,0.734362,9.54945,-0.909665,0.310625,-0.745507,-1.02998,1.51291,9.5608,-1.70149,44
3969,2.51305,8.19531,0.16159,-0.254715,-0.234622,0.798808,9.75254,-0.917363,0.274205,-0.728003,-1.07724,1.64953,9.77694,-1.446,45
3979,2.59512,7.38281,0.11544,-0.23796,-0.286036,0.773091,9.83463,-1.00187,0.222713,-0.728892,-1.11797,1.54912,9.89452,-1.33985,46
3989,2.6814,7.73438,0.0629896,-0.228984,-0.328331,0.624662,9.83199,-1.12902,0.162446,-0.738734,-1.15076,1.50981,9.86617,-1.46865,47
3999,2.76731,10.7031,0.0629896,-0.228984,-0.328331,0.624662,9.83199,-1.12902,0.162446,-0.738734,-1.15076,1.50981,9.86617,-1.46865,48
4009,2.85513,9.875,0.00718109,-0.230575,-0.353068,0.428078,9.73359,-1.33299,0.107009,-0.714044,-1.17616,1.74531,9.65803,-1.68035,49
4019,2.94525,7.28906,-0.0501167,-0.240126,-0.356459,0.226947,9.56221,-1.4672,0.0657823,-0.65206,-1.18549,1.99695,9.35831,-1.94833,50
4029,3.03767,8.5,-0.106185,-0.263686,-0.336175,0.0244523,9.41926,-1.40126,0.0429835,-0.590254,-1.17294,2.32259,9.04655,-2.17735,50
4039,3.13086,9.46875,-0.154561,-0.307765,-0.291019,-0.211584,9.34641,-1.2324,0.0301598,-0.543015,-1.13968,2.73812,8.85142,-2.20953,51
4049,3.22252,10.5781,-0.182243,-0.36635,-0.220694,-0.415271,9.29766,-1.07449,0.00856629,-0.499221,-1.08632,3.10563,8.87322,-2.07339,52
4059,3.30995,7.98438,-0.182949,-0.427096,-0.131533,-0.49785,9.35231,-0.824556,-0.0219651,-0.425787,-1.0158,3.21034,9.07466,-2.04141,53
4069,3.39202,7.17188,-0.163224,-0.48515,-0.038353,-0.489379,9.56969,-0.542682,-0.0473638,-0.347153,-0.923035,3.11917,9.33097,-2.32088,54
4079,3.46259,8.3125,-0.163224,-0.48515,-0.038353,-0.489379,9.56969,-0.542682,-0.0473638,-0.347153,-0.923035,3.11917,9.33097,-2.32088,55
4089,3.52893,5.95312,-0.132704,-0.537995,0.0471259,-0.418489,9.89731,-0.476177,-0.0587759,-0.316348,-0.806028,3.22398,9.48327,-2.77055,56
4099,3.57955,3.57031,-0.0974428,-0.571932,0.119672,-0.241148,10.1682,-0.607632,-0.0537139,-0.319081,-0.673775,3.64899,9.46728,-3.11458,57
4109,3.62864,5.28125,-0.0600323,-0.570592,0.178026,0.108319,10.1892,-0.771196,-0.0346705,-0.312876,-0.532781,4.26489,9.33406,-3.19391,58
4119,3.67658,3.78125,-0.0258075,-0.531064,0.222892,0.570946,10.0587,-0.854709,-0.00723785,-0.278934,-0.392574,4.70324,9.2621,-3.04998,58
4129,3.71109,2.52344,-0.000164056,-0.473855,0.263188,1.00248,10.0158,-0.904659,0.0191588,-0.238899,-0.263408,4.99963,9.38077,-2.70617,59
4140,3.73755,2.78125,0.0130766,-0.423292,0.304106,1.25451,10.1737,-0.990267,0.0314627,-0.204401,-0.142548,5.20479,9.68788,-2.33365,60
4149,3.75903,2.39062,0.0130766,-0.423292,0.304106,1.25451,10.1737,-0.990267,0.0314627,-0.204401,-0.142548,5.20479,9.68788,-2.33365,61
4159,3.78242,2.27344,0.0187032,-0.389017,0.341296,1.20477,10.5763,-1.03359,0.0227843,-0.162776,-0.0230627,4.98277,10.1724,-2.32412,62
4169,3.79354,0.414062,0.0362588,-0.372502,0.379628,0.887746,11.1875,-1.02832,-0.00486804,-0.146095,0.0990961,4.45527,10.7852,-2.68722,63
4179,3.79278,0.609375,0.0841538,-0.368816,0.429803,0.440499,11.8327,-1.10116,-0.0514501,-0.191042,0.233974,4.22563,11.4664,-2.90536,64
4189,3.78012,-3.22656,0.169989,-0.363495,0.491225,-0.0646734,12.3021,-1.31192,-0.129172,-0.267026,0.403378,4.77765,12.1156,-2.60964,65
4199,3.74561,-5.77344,0.295625,-0.33093,0.567535,-0.633966,12.6703,-1.2838,-0.253123,-0.32501,0.616594,5.86018,12.6591,-1.95632,65
4209,3.67274,-9.35938,0.449752,-0.254098,0.664495,-1.18396,13.0393,-0.777072,-0.41678,-0.400802,0.873334,6.98806,13.0566,-1.04267,66
4219,3.5853,-8.40625,0.591021,-0.133376,0.755888,-1.59716,13.2,-0.359102,-0.574049,-0.509248,1.17528,7.47678,13.2384,0.0363852,67
4229,3.48751,-8.9375,0.591021,-0.133376,0.755888,-1.59716,13.2,-0.359102,-0.574049,-0.509248,1.17528,7.47678,13.2384,0.0363852,68
4239,3.3832,-12.1094,0.671502,0.0197584,0.813519,-1.86775,13.0153,-0.387025,-0.694569,-0.571473,1.49277,6.67411,13.2574,1.00977,69
4249,3.27467,-13.0234,0.671185,0.174468,0.848881,-1.99588,12.5462,-0.589389,-0.807447,-0.556892,1.77543,5.04336,13.1822,2.02205,70
4259,3.17036,-12.2734,0.588529,0.298427,0.882161,-2.10829,12.0143,-0.602351,-0.923525,-0.443524,1.98468,2.87704,13.0563,2.88437,71
4269,3.05992,-9.29688,0.434063,0.364572,0.911318,-2.30359,11.5744,-0.346586,-1.01101,-0.243322,2.10494,0.283186,12.8578,2.86812,72
4279,2.94908,-12.9688,0.237735,0.349748,0.923285,-2.54653,11.216,-0.0461687,-1.04234,-0.0775607,2.14679,-1.902,12.4743,1.80453,73
4289,2.83365,-10.0938,0.0469664,0.257688,0.907707,-2.86425,10.9795,0.117383,-1.00101,-0.0217176,2.13721,-3.15598,11.8942,-0.194428,73
4300,2.71554,-10.875,-0.0912744,0.114295,0.866521,-3.04897,10.7617,-0.0621771,-0.874971,-0.0638829,2.11026,-3.46987,11.2164,-2.91613,74
4309,2.5909,-12.0625,-0.0912744,0.114295,0.866521,-3.04897,10.7617,-0.0621771,-0.874971,-0.0638829,2.11026,-3.46987,11.2164,-2.91613,75
4319,2.46089,-12.0234,-0.157778,-0.0472395,0.815504,-2.74478,10.39,-0.61035,-0.660695,-0.162369,2.09098,-2.93936,10.6423,-5.33936,76
4329,2.32782,-10.4141,-0.159829,-0.183858,0.768624,-1.95851,9.95301,-1.15426,-0.38691,-0.259176,2.08207,-1.74935,10.3549,-6.22709,77
4339,2.19321,-15.0781,-0.114266,-0.257754,0.722799,-0.97966,9.7176,-1.32999,-0.117766,-0.313414,2.07027,-0.381168,10.4031,-5.36325,78
4349,2.05592,-13.4141,-0.0457575,-0.264574,0.66328,-0.0827332,9.88458,-1.08054,0.0872477,-0.318226,2.04096,0.608347,10.7536,-3.39926,79
4359,1.91441,-11.8516,0.0147713,-0.227179,0.580475,0.565166,10.3648,-0.697022,0.203336,-0.277314,1.98919,1.04642,11.2371,-1.23515,80
4369,1.77827,-15.8047,0.0415013,-0.17064,0.475197,0.94283,10.8291,-0.464477,0.242163,-0.193992,1.91576,0.954119,11.5954,0.286143,81
4380,1.64481,-14.8594,0.0242665,-0.116107,0.357055,1.08393,11.0067,-0.420314,0.23117,-0.0950107,1.8241,0.53367,11.6491,0.915489,81
4389,1.50561,-12.2656,0.0242665,-0.116107,0.357055,1.08393,11.0067,-0.420314,0.23117,-0.0950107,1.8241,0.53367,11.6491,0.915489,82
4399,1.37368,-10.9688,-0.0325476,-0.0743471,0.238382,1.05577,10.753,-0.566102,0.179902,-0.00979287,1.72409,0.0755326,11.3321,0.960606,83
4409,1.24368,-13.2266,-0.116136,-0.0432148,0.129646,1.02567,10.09,-0.811868,0.0939736,0.0399466,1.59977,-0.293292,10.6716,0.761844,84
4419,1.11597,-14.7422,-0.210009,-0.0190099,0.0367181,1.08297,9.18838,-0.942766,-0.0120429,0.0319353,1.41744,-0.411651,9.7239,0.541909,85
4429,0.988269,-13.5312,-0.297761,0.00458472,-0.0420725,1.14885,8.18936,-0.855946,-0.121185,-0.00646265,1.19721,-0.2234,8.58513,0.317523,86
4439,0.866318,-13.3672,-0.365583,0.0350419,-0.111508,1.12636,7.28684,-0.557895,-0.201674,-0.0183207,1.02017,0.0742352,7.44984,-0.027044,87
4449,0.747817,-14.0625,-0.405475,0.074035,-0.176016,1.01649,6.67546,-0.0814494,-0.215446,0.0302873,0.93851,0.29018,6.49975,-0.500197,88
4459,0.634686,-9.14844,-0.405475,0.074035,-0.176016,1.01649,6.67546,-0.0814494,-0.215446,0.0302873,0.93851,0.29018,6.49975,-0.500197,88
4469,0.522322,-11.9609,-0.416091,0.118792,-0.23815,0.913675,6.30381,0.447746,-0.147813,0.138013,0.918498,0.347885,5.85668,-0.955711,89
4479,0.417627,-9.71094,-0.400425,0.162777,-0.296533,0.920787,6.03034,0.824754,-0.0317783,0.248193,0.905293,0.274769,5.54511,-1.1886,90
4489,0.317918,-8.84375,-0.363694,0.200695,-0.346915,1.03635,5.87638,0.97824,0.0821664,0.315413,0.867123,0.0562069,5.47302,-1.10363,91
4499,0.231248,-7.76562,-0.312469,0.230119,-0.393711,1.11093,5.85969,1.02102,0.154519,0.339536,0.787399,-0.465428,5.54055,-0.815886,92
4509,0.144962,-7.50781,-0.251881,0.246597,-0.45063,1.05349,5.87594,1.00849,0.177688,0.3312,0.664356,-1.22495,5.66368,-0.497784,93
4519,0.0648108,-9.51562,-0.185523,0.246257,-0.525496,0.932,5.91778,0.903711,0.180081,0.312504,0.502833,-1.85609,5.78166,-0.240832,94
4529,-0.0103544,-6.13281,-0.117064,0.231391,-0.616437,0.843818,6.00903,0.714564,0.174519,0.290811,0.315273,-2.12594,5.89099,-0.053846,95
4539,-0.0720973,-5.36719,-0.117064,0.231391,-0.616437,0.843818,6.00903,0.714564,0.174519,0.290811,0.315273,-2.12594,5.89099,-0.053846,96
4549,-0.123102,-4.3125,-0.04881,0.206703,-0.716016,0.813075,6.1392,0.541787,0.156597,0.256864,0.117713,-2.10985,6.04254,0.0607464,96
4559,-0.158767,-3.35938,0.0182699,0.176803,-0.811686,0.787701,6.45015,0.456934,0.128854,0.211067,-0.0805396,-1.80006,6.28197,0.0796726,97
4569,-0.177175,-1.5625,0.07977,0.148757,-0.887936,0.753737,7.02711,0.425005,0.0949449,0.163937,-0.273334,-1.10779,6.58854,-0.0308681,98
4579,-0.175641,0.726562,0.129769,0.126662,-0.93334,0.735502,7.69851,0.444749,0.0617081,0.123652,-0.456683,-0.39724,6.87952,-0.387453,99
4589,-0.17334,0.84375,0.172485,0.107548,-0.937573,0.808111,8.23325,0.420237,0.0396851,0.0840502,-0.639704,0.00681513,7.11326,-0.950206,0
4599,-0.169505,1.375,0.218572,0.0820157,-0.892574,0.992183,8.58108,0.16087,0.0371486,0.0336932,-0.821036,0.752189,7.35755,-1.44086,1
4609,-0.166054,0.601562,0.269818,0.0509716,-0.813402,1.19651,8.73325,-0.309454,0.0577021,-0.0192803,-0.944403,2.57119,7.56302,-1.96718,2
4619,-0.166054,0,0.318381,0.0329129,-0.731502,1.28475,8.83464,-0.715212,0.106938,-0.0525607,-0.948518,5.17185,7.7052,-2.71499,3
4629,-0.166054,-0.0078125,0.318381,0.0329129,-0.731502,1.28475,8.83464,-0.715212,0.106938,-0.0525607,-0.948518,5.17185,7.7052,-2.71499,4
4639,-0.166821,1.36719,0.362062,0.0394845,-0.650487,1.12297,9.40257,-0.789756,0.19935,-0.109318,-0.83658,8.00183,8.10696,-3.16269,4
4649,-0.168738,-0.0234375,0.401504,0.0708251,-0.546446,0.812255,10.6275,-0.591762,0.328805,-0.193489,-0.64304,10.6607,8.89674,-2.95382,5
4659,-0.171806,-1.25781,0.415756,0.12402,-0.41274,0.592419,12.0732,-0.341437,0.465754,-0.204425,-0.394045,12.8236,9.80133,-2.3375,6
4670,-0.177942,-0.390625,0.37702,0.191188,-0.269683,0.497495,13.3547,-0.122911,0.592301,-0.124822,-0.118244,13.8183,10.6353,-1.67701,7
4679,-0.183311,-0.851562,0.293224,0.254727,-0.12433,0.563673,14.2208,-0.0393058,0.669903,-0.0258907,0.138493,13.0988,11.1754,-1.05219,8
4689,-0.191748,-0.859375,0.195624,0.298303,0.0331154,0.952417,14.2784,-0.138725,0.668777,0.0471723,0.329907,11.3493,11.183,-0.147539,9
4699,-0.194816,0.929688,0.195624,0.298303,0.0331154,0.952417,14.2784,-0.138725,0.668777,0.0471723,0.329907,11.3493,11.183,-0.147539,10
4709,-0.194816,-0.03125,0.0993024,0.324064,0.183726,1.4702,13.6397,-0.219059,0.618561,0.106739,0.432372,9.198,10.9546,1.01266,11
4719,-0.193282,0.0859375,0.00827921,0.34263,0.293348,1.79242,12.944,-0.198332,0.534775,0.163328,0.444876,6.66869,10.9817,1.99606,12
4729,-0.189447,1.65625,-0.0711941,0.361843,0.344097,1.84909,12.5572,-0.197882,0.428222,0.215129,0.393737,3.98197,11.4058,2.48496,12
4739,-0.181777,1.53125,-0.130702,0.383329,0.330975,1.55844,12.6163,-0.224564,0.342593,0.274424,0.319745,1.37285,12.3863,2.24692,13
4749,-0.168738,1.38281,-0.163476,0.398913,0.249176,0.890561,13.0688,-0.571326,0.285722,0.35652,0.211114,-0.840218,13.8313,0.753959,14
4759,-0.163369,0,-0.172857,0.402311,0.10713,-0.153999,13.8189,-1.47167,0.241427,0.433722,0.0472781,-1.35142,15.2043,-1.66661,15
4769,-0.16567,-1.39844,-0.172576,0.392465,-0.0445381,-1.63594,15.0211,-2.28529,0.22782,0.462011,-0.0945826,0.729109,16.2923,-3.38001,16
4779,-0.168738,-0.3125,-0.172576,0.392465,-0.0445381,-1.63594,15.0211,-2.28529,0.22782,0.462011,-0.0945826,0.729109,16.2923,-3.38001,17
4789,-0.169505,-0.390625,-0.185467,0.36496,-0.14439,-3.20699,16.3386,-2.55032,0.22515,0.461037,-0.148473,3.79951,16.7976,-3.7279,18
4799,-0.167588,0.390625,-0.236409,0.325393,-0.165156,-4.18889,16.7534,-2.46322,0.203073,0.47448,-0.155445,4.98432,16.0648,-3.42312,19
4809,-0.156466,0.84375,-0.330232,0.287549,-0.120873,-4.22265,15.5437,-2.23306,0.201293,0.538535,-0.187892,3.60774,13.8833,-2.32714,19
4819,-0.129238,5.66406,-0.44227,0.269813,-0.068947,-3.5385,12.809,-2.02458,0.199699,0.661075,-0.306372,1.23937,10.8738,-0.225383,20
4829,-0.0713303,7.71875,-0.529926,0.286634,-0.064976,-2.63074,9.38855,-1.81606,0.134371,0.788345,-0.495218,-1.56059,8.1227,1.40739,21
4839,0.00728643,9.01562,-0.545732,0.321089,-0.0948947,-1.81865,6.51942,-1.31863,0.025051,0.846102,-0.675656,-4.08733,6.29602,1.72958,22
4849,0.095874,10.5312,-0.474599,0.350777,-0.115156,-1.20419,4.96524,-0.46977,-0.091689,0.898566,-0.836811,-5.03162,5.45852,1.04728,23
4859,0.186379,7.75,-0.474599,0.350777,-0.115156,-1.20419,4.96524,-0.46977,-0.125234,1.10364,-1.01473,-4.38276,5.47399,-0.451612,24
4869,0.285321,10.1172,-0.35128,0.373759,-0.119618,-0.856837,4.75004,0.301062,-0.125234,1.10364,-1.01473,-4.38276,5.47399,-0.451612,25
4879,0.383113,9.96875,-0.217477,0.394448,-0.12208,-0.790663,5.56836,0.519957,-0.0183688,1.45335,-1.19865,-2.72972,6.09243,-2.33622,26
4889,0.476686,10.4531,-0.0981838,0.415178,-0.126323,-0.870286,6.8965,0.12205,0.105113,1.7826,-1.34157,-0.746707,7.08366,-3.84709,27
4899,0.574094,9.16406,-0.0099329,0.43487,-0.136105,-1.12164,8.33515,-0.467301,0.171626,1.98325,-1.42174,0.629012,8.33201,-4.39503,27
4909,0.669968,10.5391,0.0426805,0.441748,-0.154891,-1.55354,9.61095,-0.905152,0.230044,2.00771,-1.43839,1.04658,9.63129,-4.04772,28
4919,0.765842,12.3672,0.0668627,0.419659,-0.173987,-1.97762,10.4688,-1.2176,0.297766,1.76958,-1.40607,1.03352,10.6227,-3.28339,29
4929,0.859798,10.1641,0.0716783,0.364099,-0.187996,-2.37326,10.8486,-1.42531,0.34739,1.29371,-1.35382,1.04448,11.031,-2.53373,30
4939,0.954905,7.94531,0.0645217,0.278663,-0.194947,-2.73642,10.7208,-1.51527,0.371327,0.773256,-1.28198,1.28361,10.8223,-1.91354,31
4949,1.04388,10.9062,0.0645217,0.278663,-0.194947,-2.73642,10.7208,-1.51527,0.371327,0.773256,-1.28198,1.28361,10.8223,-1.91354,32
4959,1.13553,8.82031,0.051559,0.173812,-0.189057,-2.95096,10.1039,-1.46276,0.3618,0.322292,-1.15728,1.72886,10.1046,-1.62439,33
4969,1.22757,8.92188,0.0417462,0.0638494,-0.168159,-2.96346,9.20634,-1.26999,0.314994,-0.0326629,-0.994273,2.01011,9.13116,-1.7531,34
4979,1.32038,9.57812,0.0455786,-0.042558,-0.129169,-2.81071,8.33669,-1.01093,0.270614,-0.261521,-0.883261,1.82768,8.279,-1.94117,35
4989,1.41472,9.15625,0.0662141,-0.139628,-0.0745753,-2.57849,7.73672,-0.777519,0.255989,-0.393418,-0.839932,1.29526,7.82857,-2.19907,35
4999,1.50867,11.5391,0.0996948,-0.223458,-0.0172248,-2.28482,7.50047,-0.684529,0.265574,-0.476491,-0.818458,0.921665,7.78901,-2.50912,36
5009,1.60301,9.75,0.138719,-0.292199,0.0321162,-1.94504,7.6014,-0.711714,0.313653,-0.56326,-0.814019,0.892025,7.90363,-2.44123,37
5019,1.69735,9.39062,0.174777,-0.346238,0.0653857,-1.59832,7.86083,-0.797723,0.404372,-0.670068,-0.821163,0.750274,8.01652,-2.07505,38
5029,1.79591,11.875,0.202974,-0.390159,0.0804379,-1.20091,8.14505,-0.933337,0.474223,-0.771715,-0.821202,0.335166,8.19515,-1.86533,39
5039,1.89179,10.5781,0.202974,-0.390159,0.0804379,-1.20091,8.14505,-0.933337,0.474223,-0.771715,-0.821202,0.335166,8.19515,-1.86533,40
5049,1.98996,7.55469,0.221485,-0.426277,0.0759009,-0.781333,8.45269,-1.04255,0.498315,-0.888391,-0.802472,-0.152362,8.46166,-2.0593,41
5059,2.09044,13.4141,0.230033,-0.453086,0.0495291,-0.392479,8.73061,-1.11928,0.502372,-1.02693,-0.786845,-0.513356,8.71576,-2.50135,42
5069,2.18785,11.1016,0.229007,-0.46872,0.00556796,-0.0283173,8.99558,-1.1508,0.503769,-1.15893,-0.808007,-0.528223,8.9005,-2.68487,42
5079,2.28487,7.79688,0.217161,-0.470552,-0.0527464,0.305059,9.25767,-1.12784,0.518466,-1.28725,-0.867847,-0.103242,9.071,-2.50675,43
5089,2.37844,10.7188,0.194186,-0.457987,-0.120232,0.616492,9.42644,-1.1874,0.53112,-1.39869,-0.949901,0.737021,9.2348,-2.15738,44
5099,2.47163,9.86719,0.162364,-0.433038,-0.190784,0.839809,9.53273,-1.28972,0.521389,-1.45123,-1.03736,1.51989,9.38543,-1.69401,45
5109,2.55907,6.42969,0.126884,-0.400819,-0.260928,0.957992,9.55437,-1.30686,0.47561,-1.44152,-1.11368,1.76777,9.54957,-1.35547,46
5119,2.65034,7.77344,0.0932847,-0.369953,-0.32331,0.978581,9.49225,-1.25401,0.37719,-1.37182,-1.17599,1.61352,9.65034,-1.32055,47
5129,2.73394,8.02344,0.0932847,-0.369953,-0.32331,0.978581,9.49225,-1.25401,0.37719,-1.37182,-1.17599,1.61352,9.65034,-1.32055,48
5139,2.82176,9.58594,0.0624993,-0.346849,-0.375012,0.77906,9.47119,-1.18702,0.245769,-1.23559,-1.22807,1.44315,9.5877,-1.52545,49
5149,2.90498,6.80469,0.0321499,-0.334299,-0.413253,0.40194,9.41972,-1.2073,0.125706,-1.05248,-1.2611,1.62234,9.3755,-1.76049,50
5159,2.9928,9.82812,0.000130882,-0.333274,-0.427296,-0.00980097,9.29335,-1.23371,0.0426822,-0.856821,-1.26166,2.00477,9.11958,-1.97753,50
5169,3.07449,7.4375,-0.0321433,-0.350064,-0.405966,-0.394381,9.20081,-1.1612,-0.0018053,-0.704009,-1.21834,2.46826,8.90217,-2.2442,51
5179,3.16039,7.51562,-0.0632649,-0.389665,-0.343785,-0.668154,9.19474,-1.06822,-0.017231,-0.616773,-1.13243,3.1441,8.75466,-2.36144,52
5189,3.24131,7.15625,-0.0917325,-0.445054,-0.246433,-0.753474,9.22713,-0.978387,-0.0190231,-0.545122,-1.01813,3.76708,8.71971,-2.30681,53
5199,3.32606,8.74219,-0.111343,-0.508067,-0.127776,-0.677643,9.31922,-0.895928,-0.0190231,-0.545122,-1.01813,3.76708,8.71971,-2.30681,54
5209,3.40084,7.89062,-0.111343,-0.508067,-0.127776,-0.677643,9.31922,-0.895928,-0.0227472,-0.463011,-0.891818,4.16089,8.77814,-2.331,55
5219,3.47524,6.73438,-0.117565,-0.571677,-0.00608756,-0.533766,9.52481,-0.862708,-0.0357095,-0.415516,-0.762326,4.37242,8.89107,-2.48043,56
5229,3.54044,6.78125,-0.11057,-0.625684,0.104283,-0.329532,9.78748,-0.86199,-0.0541824,-0.418133,-0.634177,4.43741,9.07596,-2.63855,57
5239,3.59259,3.70312,-0.0939671,-0.660904,0.197727,-0.0295217,10.0677,-0.861867,-0.0681393,-0.43815,-0.512823,4.50727,9.32413,-2.72195,58
5249,3.64628,5.375,-0.0750285,-0.669169,0.267427,0.375263,10.3117,-0.92662,-0.0739587,-0.465324,-0.394017,4.57111,9.61397,-2.75925,58
5259,3.69153,3.4375,-0.0598135,-0.644358,0.310532,0.862995,10.5124,-1.04985,-0.0721796,-0.482027,-0.28054,4.38418,9.94388,-2.75216,59
5269,3.7226,2.42969,-0.0510229,-0.590066,0.3343,1.37163,10.6428,-1.15,-0.0683639,-0.469463,-0.18108,4.11621,10.2516,-2.48809,60
5279,3.74446,2.25,-0.0510229,-0.590066,0.3343,1.37163,10.6428,-1.15,-0.0683639,-0.469463,-0.18108,4.11621,10.2516,-2.48809,61
5289,3.76632,2.30469,-0.0516418,-0.516784,0.344112,1.7194,10.6974,-1.15108,-0.0742365,-0.422407,-0.0894567,4.04205,10.4752,-2.09076,62
5299,3.78779,1.82812,-0.0558342,-0.43888,0.345534,1.74245,10.8441,-0.966035,-0.0932096,-0.342865,0.000767266,4.03785,10.6586,-2.02815,63
5309,3.79508,-1.11719,-0.0427019,-0.372001,0.353048,1.52735,11.1547,-0.671168,-0.11896,-0.260169,0.0912691,4.15949,10.8752,-2.31921,64
5319,3.79316,-0.140625,0.00452321,-0.321373,0.378413,1.17329,11.5362,-0.478339,-0.150248,-0.202348,0.197648,4.70631,11.1608,-2.5528,65
5329,3.78127,-2.125,0.0878148,-0.279575,0.417901,0.556845,11.939,-0.533604,-0.203618,-0.181119,0.349281,5.56292,11.4963,-2.79271,65
5339,3.75021,-6.17188,0.205518,-0.237754,0.476433,-0.229772,12.3236,-0.859237,-0.298292,-0.197609,0.554614,6.37574,11.8652,-3.12825,66
5349,3.68271,-10.1406,0.350828,-0.18216,0.566604,-0.869897,12.5597,-1.35549,-0.429695,-0.263983,0.807155,7.15428,12.1951,-2.79702,67
5359,3.59911,-7.61719,0.350828,-0.18216,0.566604,-0.869897,12.5597,-1.35549,-0.429695,-0.263983,0.807155,7.15428,12.1951,-2.79702,68
5369,3.50362,-11.2188,0.490416,-0.0903352,0.665655,-1.41836,12.5952,-1.74778,-0.561717,-0.365618,1.10703,7.43988,12.4543,-1.751,69
5379,3.40468,-8.51562,0.579662,0.0333077,0.745061,-1.90649,12.4205,-1.92397,-0.672851,-0.453792,1.42907,6.58886,12.6969,-0.576836,70
5389,3.29845,-11.1484,0.598873,0.155318,0.810129,-2.21634,12.0867,-1.9255,-0.791453,-0.501627,1.72337,5.03176,12.8755,0.913143,71
5399,3.19529,-12.8203,0.543098,0.252091,0.869885,-2.46977,11.8098,-1.56318,-0.929874,-0.444169,1.94797,3.06379,13.0303,2.41115,72
5409,3.08714,-11.1641,0.41337,0.302665,0.91881,-2.70037,11.673,-0.877014,-1.05678,-0.280075,2.08519,0.776771,13.1233,2.98897,73
5419,2.9744,-10.9453,0.23238,0.284268,0.942875,-2.89302,11.6042,-0.164374,-1.13613,-0.132064,2.14334,-1.28922,12.9875,2.20947,73
5429,2.85666,-11.4297,0.0510677,0.193428,0.929647,-3.02749,11.4741,0.257802,-1.13814,-0.0746571,2.14877,-2.77261,12.5452,-0.0124258,74
5439,2.73394,-14.8516,-0.0771682,0.0488972,0.885416,-2.88038,11.1302,0.139401,-1.03216,-0.0893194,2.12939,-3.3273,11.7604,-3.18571,75
5449,2.60701,-13.8359,-0.0771682,0.0488972,0.885416,-2.88038,11.1302,0.139401,-1.03216,-0.0893194,2.12939,-3.3273,11.7604,-3.18571,76
5459,2.47355,-14.7891,-0.134883,-0.109581,0.828063,-2.39564,10.6593,-0.294417,-0.796929,-0.100595,2.0988,-2.73574,10.8703,-6.01525,77
5469,2.33703,-13.8281,-0.129229,-0.230228,0.767476,-1.73495,10.2771,-0.599337,-0.466223,-0.0798929,2.06515,-1.36946,10.2483,-7.18853,78
5479,2.19667,-11.7891,-0.0727441,-0.27801,0.699362,-1.03884,10.1115,-0.574496,-0.13339,-0.0829868,2.03573,-0.0138802,10.0758,-6.37102,79
5489,2.05247,-16.6641,0.0071153,-0.257772,0.615343,-0.43378,10.2549,-0.421037,0.120878,-0.130056,2.0077,0.809118,10.4024,-4.21482,80
5499,1.90904,-10.9062,0.0733956,-0.199954,0.517591,0.0397621,10.6326,-0.503033,0.268643,-0.182667,1.97281,1.10974,11.0037,-1.79154,81
5509,1.76715,-12.3672,0.0938985,-0.133864,0.412326,0.371519,10.9913,-0.804241,0.322346,-0.192815,1.9217,0.974474,11.5191,-0.0061878,81
5519,1.62794,-12.8594,0.0938985,-0.133864,0.412326,0.371519,10.9913,-0.804241,0.314624,-0.142738,1.84801,0.560207,11.739,0.880762,82
5529,1.48796,-15.2188,0.0569265,-0.0778602,0.305455,0.552343,11.1206,-1.034,0.314624,-0.142738,1.84801,0.560207,11.739,0.880762,83
5539,1.35106,-15.3984,-0.0249718,-0.0356401,0.202159,0.700702,10.8662,-1.09145,0.264522,-0.0557445,1.75666,0.123638,11.532,0.98401,84
5549,1.21875,-15.4453,-0.132688,-0.00408489,0.104673,0.893835,10.2333,-1.04603,0.177012,0.010497,1.6453,-0.215653,10.937,0.659851,85
5559,1.08951,-14.6797,-0.24939,0.0193797,0.0176359,1.07934,9.42939,-0.916733,0.0591707,0.00721422,1.48542,-0.321116,10.0509,0.393272,86
5569,0.960274,-12.8047,-0.361087,0.0412976,-0.0574204,1.21324,8.54875,-0.67377,-0.0613057,-0.0170164,1.28094,-0.188651,8.93218,0.299688,87
5579,0.836021,-10.4688,-0.453215,0.0698562,-0.126314,1.24831,7.64955,-0.336153,-0.146741,0.00525509,1.07401,0.0445864,7.76902,0.214112,88
5589,0.712536,-10.2969,-0.511437,0.108495,-0.194746,1.14968,6.93032,0.0640137,-0.188925,0.0556591,0.913956,0.250188,6.77433,0.190583,88
5599,0.599788,-11.0312,-0.531648,0.155563,-0.264446,0.945923,6.47571,0.508331,-0.188925,0.0556591,0.913956,0.250188,6.77433,0.190583,89
5609,0.484739,-11.4141,-0.531648,0.155563,-0.264446,0.945923,6.47571,0.508331,-0.185598,0.112632,0.845436,0.264646,6.01634,0.306917,90
5619,0.378127,-9.60156,-0.518636,0.206478,-0.333174,0.769154,6.14287,0.889875,-0.129097,0.192874,0.831921,0.0558803,5.51684,0.25241,91
5629,0.278035,-10.3828,-0.475847,0.253844,-0.395186,0.772536,5.81562,1.01882,-0.0498041,0.276422,0.807381,-0.292118,5.31073,-0.0527329,92
5639,0.183311,-10.7578,-0.407524,0.291315,-0.448749,0.93089,5.54654,0.898315,0.00972839,0.333039,0.746105,-0.706303,5.28407,-0.32821,93
5649,0.093573,-9.57812,-0.324548,0.316055,-0.503335,1.03427,5.38802,0.751695,0.0545401,0.370326,0.638179,-1.1309,5.29206,-0.507646,94
5659,0.0107379,-8.9375,-0.236818,0.32455,-0.571123,0.978419,5.36447,0.656194,0.0969384,0.38801,0.490094,-1.43522,5.32213,-0.587505,95
5669,-0.0667283,-5.53906,-0.149417,0.316795,-0.654004,0.867739,5.46788,0.58362,0.12611,0.380777,0.316894,-1.64526,5.43041,-0.573792,96
5679,-0.134607,-8.64844,-0.149417,0.316795,-0.654004,0.867739,5.46788,0.58362,0.12611,0.380777,0.316894,-1.64526,5.43041,-0.573792,96
5689,-0.19635,-4.24219,-0.064659,0.29568,-0.744639,0.748562,5.67316,0.555197,0.135838,0.348459,0.131627,-1.81142,5.64285,-0.502279,97
5699,-0.240069,-4.19531,0.0152176,0.262992,-0.834897,0.567209,6.02246,0.584004,0.12823,0.290411,-0.0536938,-1.63104,5.94941,-0.37935,98
5709,-0.261161,-1.35156,0.0848639,0.223283,-0.911925,0.369005,6.57719,0.633966,0.107734,0.215503,-0.227768,-1.01082,6.39153,-0.318056,99
5719,-0.264229,-0.09375,0.142244,0.178242,-0.951743,0.245086,7.40591,0.598191,0.0805743,0.129617,-0.391652,-0.20735,6.92474,-0.3579,0
5729,-0.263462,1.53125,0.188478,0.125583,-0.936915,0.203882,8.32737,0.455206,0.0550885,0.0321854,-0.547598,0.724492,7.3448,-0.556677,1
5739,-0.261928,-0.539062,0.222912,0.0659691,-0.870752,0.23153,8.98253,0.326149,0.0397677,-0.0711518,-0.681385,2.11539,7.48049,-0.942056,2
5749,-0.260394,0.046875,0.248163,0.00150459,-0.766606,0.265697,9.35681,0.32733,0.0449365,-0.157888,-0.762395,4.22247,7.47436,-1.36232,3
5759,-0.258476,1.64844,0.271231,-0.060986,-0.63913,0.252578,9.70866,0.398506,0.0804995,-0.220398,-0.751877,6.73128,7.65035,-1.75899,4
5769,-0.25886,-0.414062,0.271231,-0.060986,-0.63913,0.252578,9.70866,0.398506,0.0804995,-0.220398,-0.751877,6.73128,7.65035,-1.75899,4
5779,-0.25886,0.34375,0.293005,-0.105109,-0.503265,0.213048,10.2794,0.453661,0.148698,-0.268865,-0.639271,9.02324,8.15471,-2.0381,5
5789,-0.260777,-0.132812,0.306286,-0.118465,-0.367425,0.192538,11.1854,0.522672,0.242614,-0.29383,-0.455618,10.7276,8.98118,-1.99256,6
5799,-0.263462,-0.0625,0.29986,-0.103168,-0.235625,0.299988,12.2428,0.54584,0.346807,-0.281615,-0.237566,11.8827,9.90263,-1.55002,7
5809,-0.26768,-1.28125,0.261193,-0.0706537,-0.113419,0.574406,13.1272,0.534835,0.441023,-0.23159,-0.0172908,12.2416,10.5524,-0.970248,8
5819,-0.271515,-0.34375,0.194685,-0.0316805,0.00114176,0.96839,13.5699,0.521048,0.492093,-0.170001,0.165534,11.4589,10.6977,-0.516762,9
5829,-0.273816,-0.0078125,0.121715,0.010075,0.108543,1.47632,13.3557,0.381923,0.486265,-0.116248,0.281645,9.9616,10.3172,-0.172774,10
5839,-0.2742,-1.50781,0.0575336,0.0530992,0.196268,2.02262,12.6234,0.21767,0.45551,-0.0572171,0.325749,8.34716,9.67378,0.0231009,11
5849,-0.273816,0.179688,0.00957962,0.0995436,0.254367,2.51277,11.7975,0.174618,0.420356,0.00747692,0.307323,6.91701,9.12237,-0.015379,11
5859,-0.273049,-0.0078125,0.00957962,0.0995436,0.254367,2.51277,11.7975,0.174618,0.420356,0.00747692,0.307323,6.91701,9.12237,-0.015379,12
5869,-0.270748,-1.125,-0.0190333,0.159933,0.279842,2.90767,11.1902,0.174092,0.384864,0.084194,0.238445,5.67606,8.87513,-0.361856,13
5879,-0.263462,1.27344,-0.0282301,0.243505,0.27002,3.1384,10.9583,0.125701,0.364416,0.189005,0.124024,4.15743,8.96227,-1.2329,14
5889,-0.250423,1.61719,-0.0131441,0.345956,0.222944,3.10222,11.1024,-0.00202429,0.393092,0.334039,-0.023089,2.25527,9.33965,-2.86159,15
5899,-0.22818,2.21875,0.030516,0.454108,0.133558,2.5152,11.6523,-0.265427,0.509755,0.492259,-0.162498,0.926975,10.2584,-4.8414,16
5909,-0.215525,0.0703125,0.0954637,0.55204,0.0125663,1.10433,12.8135,-0.713505,0.688726,0.57545,-0.260708,1.35465,12.0839,-5.54683,17
5919,-0.218209,-1.28125,0.151702,0.621719,-0.0995839,-0.855351,14.5441,-1.2715,0.837515,0.571798,-0.29421,3.679,14.548,-3.6517,18
5929,-0.222044,-2.10938,0.151702,0.621719,-0.0995839,-0.855351,14.5441,-1.2715,0.837515,0.571798,-0.29421,3.679,14.548,-3.6517,18
5939,-0.223578,-0.546875,0.146616,0.655983,-0.171254,-2.71131,16.2674,-1.89095,0.868227,0.584698,-0.237931,5.74402,16.7334,-0.4167,19
5949,-0.220894,-0.953125,0.044657,0.657161,-0.190016,-3.87461,17.1478,-2.60982,0.759858,0.676883,-0.144713,5.13855,17.4853,1.96092,20
5959,-0.209389,1.41406,-0.144742,0.634325,-0.165707,-4.12966,16.4575,-3.13785,0.569869,0.820007,-0.121864,1.80498,16.2156,2.81699,21
5969,-0.174491,4.50781,-0.368347,0.593691,-0.143497,-3.3328,13.6084,-3.57671,0.348173,0.968873,-0.230193,-2.69442,13.6862,2.5122,22
5979,-0.1185,5.04688,-0.542269,0.534663,-0.152896,-1.82055,9.44374,-4.43257,0.101023,1.05532,-0.443932,-6.0356,11.0387,1.66784,23
5989,-0.0441021,9.47656,-0.608564,0.478084,-0.179467,-0.83856,6.26029,-4.9661,-0.168604,1.02951,-0.720759,-7.30473,8.58755,0.372679,24
5999,0.0402671,10.4922,-0.571327,0.452637,-0.195164,-0.781553,4.92188,-4.29929,-0.40341,1.02429,-1.02768,-7.10592,6.52169,-1.58667,25
6009,0.12617,8.36719,-0.467357,0.465196,-0.190435,-1.10411,4.87006,-2.87339,-0.500083,1.23441,-1.26919,-5.67385,5.47073,-3.76871,25
6019,0.218976,6.95312,-0.467357,0.465196,-0.190435,-1.10411,4.87006,-2.87339,-0.500083,1.23441,-1.26919,-5.67385,5.47073,-3.76871,26
6029,0.313316,12.0938,-0.332688,0.503672,-0.17536,-1.48108,5.70073,-1.56161,-0.427679,1.5863,-1.39989,-3.49763,5.67338,-5.29349,27
6039,0.408423,8.47656,-0.195432,0.548072,-0.160827,-1.75391,7.04027,-0.834078,-0.234935,1.8294,-1.4534,-1.5481,6.80756,-5.6129,28
6049,0.50238,8,-0.0773013,0.574148,-0.157638,-1.90823,8.41579,-0.698131,0.0238725,1.8713,-1.45755,-0.343715,8.39447,-4.90324,29
6059,0.599404,7.99219,0.0110187,0.558645,-0.172036,-2.02734,9.5338,-0.935469,0.302993,1.81384,-1.44413,0.0975386,9.93039,-3.64979,30
6069,0.694511,8.21875,0.0710747,0.493358,-0.199828,-2.23264,10.2953,-1.27234,0.507475,1.69743,-1.41892,0.0449245,10.9733,-2.40865,31
6079,0.791919,8.24219,0.108391,0.387364,-0.229453,-2.56095,10.5644,-1.52502,0.547533,1.4177,-1.36866,0.226155,11.2562,-1.43018,32
6089,0.889711,9.25,0.126224,0.260155,-0.24688,-2.86493,10.2937,-1.58815,0.469778,0.992668,-1.31531,0.846056,10.8096,-0.625855,32
6099,0.985968,8.86719,0.126224,0.260155,-0.24688,-2.86493,10.2937,-1.58815,0.469778,0.992668,-1.31531,0.846056,10.8096,-0.625855,33
6109,1.08108,9.25781,0.127734,0.132144,-0.243767,-2.9902,9.60998,-1.44641,0.379908,0.649327,-1.25043,0.956885,9.70121,-0.217084,34
6119,1.17618,11.0859,0.119626,0.0150379,-0.219166,-2.95221,8.78944,-1.20773,0.317932,0.467418,-1.1536,0.379748,8.248,-0.315203,35
6129,1.27397,9.07812,0.109826,-0.0855065,-0.177926,-2.85595,8.12522,-0.960968,0.274082,0.27489,-1.06982,0.0254672,7.18921,-0.847545,36
6139,1.36946,10.6562,0.105504,-0.167516,-0.127464,-2.73225,7.74919,-0.756886,0.259243,-0.0177858,-1.01077,0.182109,6.80831,-1.64203,37
6149,1.47071,10.8984,0.109768,-0.232527,-0.0765654,-2.57282,7.65766,-0.629827,0.291543,-0.343894,-0.94007,0.57009,6.91111,-2.34534,38
6159,1.57042,10.7812,0.120973,-0.282146,-0.0327137,-2.31153,7.68637,-0.615285,0.347797,-0.613554,-0.861654,0.895398,7.27635,-2.80941,39
6169,1.67051,9.46094,0.138059,-0.319913,0.00286784,-1.87714,7.68608,-0.7501,0.385622,-0.796551,-0.822351,1.18252,7.62479,-2.82725,39
6179,1.77444,9.375,0.158328,-0.347577,0.0268727,-1.35644,7.75047,-0.92996,0.389789,-0.896043,-0.843411,1.34732,7.82838,-2.47543,40
6189,1.8776,13.0859,0.178163,-0.364576,0.0323061,-0.833245,7.89668,-1.02364,0.389789,-0.896043,-0.843411,1.34732,7.82838,-2.47543,41
6199,1.98344,12.5234,0.178163,-0.364576,0.0323061,-0.833245,7.89668,-1.02364,0.389039,-0.926391,-0.88199,1.17753,7.93871,-2.12196,42
6209,2.08814,11.8984,0.195289,-0.372587,0.0188472,-0.330325,8.01938,-0.998622,0.412148,-0.936328,-0.905294,0.982814,8.05991,-1.80481,43
6219,2.19321,9.46094,0.206621,-0.372945,-0.0102916,0.0814833,8.18946,-0.866757,0.448135,-0.962452,-0.938788,0.913563,8.29274,-1.5349,44
6229,2.29753,9.14844,0.209862,-0.367173,-0.0512879,0.411481,8.40555,-0.730864,0.478731,-1.03389,-0.994708,0.970699,8.60511,-1.39661,45
6239,2.39685,8.21875,0.203092,-0.357973,-0.0963986,0.684781,8.57665,-0.725587,0.493463,-1.14092,-1.05398,1.36514,8.87068,-1.31699,46
6249,2.49886,11.3438,0.18546,-0.345788,-0.1428,0.77107,8.79494,-0.828358,0.477459,-1.21331,-1.10782,1.77818,9.05872,-1.2927,46
6259,2.59052,11.1719,0.160238,-0.332198,-0.190524,0.661721,9.00463,-0.968893,0.431292,-1.21605,-1.15143,1.87398,9.1943,-1.33834,47
6269,2.69023,9.8125,0.130726,-0.321633,-0.229018,0.522138,9.03821,-1.06846,0.363785,-1.15746,-1.18344,2.03485,9.26299,-1.24752,48
6279,2.78457,8.3125,0.130726,-0.321633,-0.229018,0.522138,9.03821,-1.06846,0.363785,-1.15746,-1.18344,2.03485,9.26299,-1.24752,49
6289,2.88006,10.3594,0.0951469,-0.315849,-0.250934,0.351413,9.00106,-1.00372,0.27786,-1.04632,-1.20541,2.28161,9.26568,-1.05688,50
6299,2.97746,10.6016,0.051781,-0.31972,-0.258412,0.0977174,9.01011,-0.867104,0.18823,-0.918982,-1.20507,2.36895,9.25448,-1.10143,51
6309,3.06912,9.94531,0.0030974,-0.34288,-0.24409,-0.14392,9.09564,-0.774791,0.113077,-0.8169,-1.17257,2.5062,9.26685,-1.40614,52
6319,3.16346,8.80469,-0.0469489,-0.38793,-0.201815,-0.306074,9.27158,-0.725676,0.0544616,-0.751941,-1.10929,2.76243,9.30708,-1.81491,53
6329,3.25205,8.04688,-0.0899858,-0.449623,-0.136041,-0.361657,9.46074,-0.792491,0.00688698,-0.712286,-1.01959,3.2032,9.33753,-2.20318,54
6339,3.34294,9.76562,-0.116854,-0.516072,-0.0538062,-0.327119,9.68443,-0.925128,-0.0296474,-0.673896,-0.916553,3.79416,9.32995,-2.46767,54
6349,3.42232,9.71094,-0.124865,-0.573125,0.0339574,-0.243195,9.93081,-1.00126,-0.0540494,-0.605207,-0.810413,4.24485,9.34027,-2.6313,55
6359,3.50055,6.71875,-0.124865,-0.573125,0.0339574,-0.243195,9.93081,-1.00126,-0.0540494,-0.605207,-0.810413,4.24485,9.34027,-2.6313,56
6369,3.56766,6.61719,-0.115775,-0.612982,0.119789,-0.0735922,10.1209,-0.943865,-0.0666612,-0.50692,-0.701262,4.47401,9.41623,-2.75915,57
6379,3.62979,4.8125,-0.0948271,-0.633044,0.198155,0.195217,10.3007,-0.761504,-0.0684777,-0.442338,-0.586051,4.57978,9.55677,-2.8308,58
6389,3.68655,4.52344,-0.0700703,-0.629393,0.260635,0.522631,10.5056,-0.5991,-0.0621033,-0.43088,-0.465948,4.65456,9.75174,-2.72393,59
6399,3.72988,4.96094,-0.0499359,-0.596088,0.305486,0.8902,10.7408,-0.459508,-0.0498168,-0.427277,-0.350825,4.78443,9.97584,-2.30577,60
6409,3.76747,5.10156,-0.0422739,-0.535803,0.33635,1.27353,10.9351,-0.353339,-0.0400945,-0.412522,-0.242452,5.12548,10.194,-1.59225,61
6419,3.81272,4.25,-0.0522262,-0.463633,0.357706,1.53571,11.0965,-0.314199,-0.0426906,-0.371243,-0.139783,5.20669,10.427,-1.06937,61
6429,3.85222,2.1875,-0.0710062,-0.404916,0.381911,1.56272,11.3134,-0.26444,-0.0621455,-0.323008,-0.0461957,4.7378,10.7132,-1.05763,62
6439,3.86717,0.210938,-0.0772369,-0.375037,0.419239,1.3878,11.4988,-0.275626,-0.0621455,-0.323008,-0.0461957,4.7378,10.7132,-1.05763,63
6449,3.86717,-0.210938,-0.0772369,-0.375037,0.419239,1.3878,11.4988,-0.275626,-0.102983,-0.303322,0.0561464,4.56277,11.0073,-1.3178,64
6459,3.86066,-1.29688,-0.0548123,-0.359588,0.464458,1.05236,11.6246,-0.415009,-0.164259,-0.280314,0.196688,4.95168,11.2965,-1.77713,65
6470,3.83458,-4.25,0.00855733,-0.339867,0.513747,0.559189,11.7707,-0.656316,-0.250016,-0.257263,0.388027,5.57639,11.6689,-2.19111,66
6479,3.7993,-3.99219,0.123191,-0.308227,0.569499,-0.204772,12.0758,-0.993177,-0.374029,-0.260176,0.622294,6.27272,12.1716,-2.07635,67
6489,3.7318,-10.1719,0.288746,-0.252255,0.639639,-1.24218,12.5093,-1.28695,-0.547355,-0.290205,0.890455,6.57788,12.6469,-1.48877,68
6499,3.64321,-8.13281,0.482364,-0.153394,0.731718,-2.12442,12.5581,-1.4038,-0.765547,-0.376484,1.19769,6.42658,12.7238,-0.704429,68
6509,3.54389,-9.47656,0.648076,-0.00622852,0.827025,-2.60139,12.0698,-1.30136,-0.98684,-0.449698,1.52186,5.8567,12.3753,0.246227,69
6519,3.43766,-9.02344,0.648076,-0.00622852,0.827025,-2.60139,12.0698,-1.30136,-0.98684,-0.449698,1.52186,5.8567,12.3753,0.246227,70
6529,3.32913,-12.5703,0.728474,0.159724,0.904078,-2.89725,11.4907,-0.947221,-1.16097,-0.397882,1.8107,4.46325,12.0037,1.19297,71
6539,3.22137,-9.99219,0.697355,0.293265,0.963267,-3.18696,11.0937,-0.456665,-1.25874,-0.24298,2.03146,2.28852,11.7859,1.58386,72
6549,3.10939,-10.8359,0.562336,0.351528,1.00691,-3.4794,10.9448,0.0494358,-1.2589,-0.0733099,2.171,-0.0823072,11.6465,0.944475,73
6559,2.9928,-13.125,0.368823,0.312067,1.02927,-3.73916,10.9786,0.406918,-1.15244,0.0278729,2.23931,-1.99618,11.4637,-0.847811,74
6569,2.87085,-11.8828,0.180603,0.182689,1.02906,-3.71491,10.9622,0.353826,-0.943308,0.0701213,2.26124,-2.9148,11.2035,-3.39167,75
6579,2.74315,-14.2109,0.0429813,0.00730775,1.01276,-3.19468,10.8816,-0.123745,-0.650035,0.118702,2.25474,-2.60449,11.0274,-5.59819,75
6589,2.60931,-13.9531,-0.0258712,-0.1505,0.979756,-2.37274,10.9607,-0.655396,-0.326322,0.116517,2.23805,-1.53919,11.1016,-6.48895,76
6599,2.47623,-16.4062,-0.0258712,-0.1505,0.979756,-2.37274,10.9607,-0.655396,-0.0419878,0.000984301,2.21804,-0.461778,11.4513,-5.84958,77
6609,2.33166,-16.2891,-0.0253979,-0.244767,0.922289,-1.46334,11.233,-0.835167,-0.0419878,0.000984301,2.21804,-0.461778,11.4513,-5.84958,78
6619,2.18631,-14.375,0.0229328,-0.267113,0.833589,-0.556036,11.5918,-0.673662,0.15888,-0.176728,2.19142,0.330564,12.0077,-4.07735,79
6629,2.0471,-11.0625,0.0796591,-0.235452,0.717428,0.280498,11.9321,-0.466437,0.261505,-0.35946,2.15529,0.790955,12.6455,-1.85282,80
6639,1.90291,-13.5781,0.108278,-0.174707,0.588173,1.01519,12.1253,-0.499526,0.276662,-0.458822,2.09744,0.95713,13.0924,0.0427523,81
6649,1.76523,-11.6016,0.0859022,-0.103364,0.455452,1.53127,12.0478,-0.804631,0.239992,-0.393652,2.00946,0.851336,13.1111,0.996702,82
6659,1.62871,-12.1406,0.0122945,-0.0342974,0.327462,1.74084,11.6674,-1.21892,0.180103,-0.221222,1.89927,0.533197,12.714,1.14302,82
6669,1.48912,-14.0938,-0.0919979,0.0255658,0.214929,1.78321,11.0017,-1.65102,0.0922157,-0.0399771,1.77955,0.18561,11.9611,0.968048,83
6679,1.36333,-13.1875,-0.0919979,0.0255658,0.214929,1.78321,11.0017,-1.65102,0.0922157,-0.0399771,1.77955,0.18561,11.9611,0.968048,84
6689,1.23677,-13.8203,-0.207383,0.0757946,0.12087,1.80659,10.0928,-1.90768,-0.0184043,0.0834927,1.64296,-0.0767918,10.9395,0.688572,85
6699,1.11943,-9.6875,-0.319193,0.117094,0.0430014,1.80716,9.10379,-1.84125,-0.120298,0.117678,1.46883,-0.135468,9.76745,0.412023,86
6709,1.00054,-12.0625,-0.413532,0.15363,-0.0229909,1.74713,8.17086,-1.50253,-0.193001,0.11583,1.26763,0.0198668,8.50364,0.140472,87
6719,0.883959,-13.3359,-0.482816,0.192675,-0.0862528,1.60944,7.30532,-0.941779,-0.232402,0.129651,1.06914,0.101735,7.30524,-0.186993,88
6729,0.779648,-8.71875,-0.520619,0.237329,-0.153427,1.46016,6.49026,-0.330122,-0.258668,0.139667,0.89854,-0.108283,6.3859,-0.506918,89
6739,0.673419,-9.60938,-0.522015,0.284166,-0.220429,1.39499,5.78295,0.085127,-0.264372,0.171033,0.783381,-0.417191,5.78064,-0.655064,89
6749,0.573327,-10.1016,-0.494965,0.328668,-0.282664,1.33704,5.322,0.348553,-0.208318,0.27506,0.720812,-0.604877,5.35556,-0.579535,90
6759,0.480137,-9,-0.494965,0.328668,-0.282664,1.33704,5.322,0.348553,-0.208318,0.27506,0.720812,-0.604877,5.35556,-0.579535,91
6769,0.393467,-10.2812,-0.453541,0.366848,-0.346611,1.16692,5.1327,0.631046,-0.111744,0.404486,0.67062,-0.849751,5.06077,-0.450193,92
6779,0.311399,-8.88281,-0.400437,0.391848,-0.416838,1.00554,5.06103,0.781071,-0.027826,0.492814,0.596507,-1.18191,4.91324,-0.329593,93
6789,0.237384,-6.85938,-0.334193,0.399862,-0.492036,0.94219,5.0073,0.744178,0.0224103,0.532714,0.483025,-1.53821,4.87848,-0.188983,94
6799,0.169505,-6.52344,-0.25962,0.39197,-0.575417,0.885686,4.9951,0.732478,0.0397506,0.534576,0.333476,-1.99706,4.92801,-0.157243,95
6809,0.112364,-5.33594,-0.180143,0.36928,-0.66735,0.788364,5.05329,0.794272,0.0337099,0.501218,0.161235,-2.32871,5.02924,-0.24968,96
6819,0.0690293,-2.80469,-0.0973581,0.334318,-0.760008,0.681195,5.21001,0.840003,0.0144439,0.438325,-0.0213404,-2.34563,5.21821,-0.353923,96
6829,0.0414176,-0.648438,-0.0128969,0.291168,-0.839082,0.648462,5.55392,0.725517,-0.0111855,0.361455,-0.209014,-2.06632,5.54941,-0.442958,97
6839,0.0356651,0.0625,0.0687532,0.245254,-0.886844,0.684173,6.17526,0.491741,-0.0427807,0.30785,-0.406823,-1.55038,5.96033,-0.572521,98
6849,0.0364321,0.226562,0.0687532,0.245254,-0.886844,0.684173,6.17526,0.491741,-0.0427807,0.30785,-0.406823,-1.55038,5.96033,-0.572521,99
6859,0.0398836,1.57812,0.141349,0.199497,-0.892357,0.738021,6.93943,0.332542,-0.077768,0.335508,-0.625802,-0.852341,6.36152,-0.815418,0
6869,0.048704,0.570312,0.205825,0.150182,-0.854046,0.818846,7.61931,0.22989,-0.100671,0.451781,-0.850228,0.190784,6.9766,-1.28454,1
6879,0.0567574,0.0703125,0.268318,0.0935514,-0.784158,0.960889,8.08532,-0.0706332,-0.0872329,0.574735,-1.00714,1.86002,7.77081,-2.26124,2
6889,0.0582914,-0.015625,0.330376,0.0376872,-0.704157,1.0841,8.4619,-0.576149,-0.0162431,0.635547,-1.02958,4.41105,8.24108,-3.52278,3
6899,0.0575244,0.703125,0.391463,0.000951337,-0.617087,0.9503,9.22096,-0.842843,0.120229,0.559044,-0.910456,7.67612,8.63497,-4.11571,4
6909,0.0544564,0.0234375,0.451717,-0.00491797,-0.504964,0.602087,10.6008,-0.728004,0.310088,0.24214,-0.664298,10.8874,9.44323,-3.64781,5
6919,0.0506215,-1.35156,0.48924,0.0160573,-0.361669,0.344367,12.2843,-0.582425,0.529139,-0.257184,-0.316469,13.5456,10.5457,-2.45415,5
6929,0.0368156,-1.14844,0.465987,0.0489611,-0.19769,0.329619,13.8865,-0.547639,0.726622,-0.725562,0.0624999,15.1938,11.6028,-0.878824,6
6939,0.0134224,-2.17188,0.465987,0.0489611,-0.19769,0.329619,13.8865,-0.547639,0.726622,-0.725562,0.0624999,15.1938,11.6028,-0.878824,7
6949,-0.0145729,-3.63281,0.377311,0.082782,-0.0237882,0.53581,15.0821,-0.566207,0.834965,-0.926973,0.369254,15.1094,12.1936,0.73756,8
6959,-0.0337477,-1.38281,0.247954,0.113572,0.133035,0.899045,15.379,-0.656264,0.836458,-0.800798,0.570169,13.2924,12.178,2.03335,9
6969,-0.0460195,-0.359375,0.0982773,0.13402,0.241545,1.3403,14.7457,-0.633586,0.751767,-0.529439,0.687068,10.4218,11.8304,2.86342,10
6979,-0.0475535,0,-0.0480883,0.143811,0.298353,1.76195,13.7558,-0.3873,0.607743,-0.260133,0.708381,7.39242,11.4349,3.26369,11
6989,-0.046403,0.875,-0.165916,0.15624,0.316225,2.12495,12.8766,-0.140873,0.43405,-0.0324511,0.621918,4.70293,11.176,3.06621,12
6999,-0.0433351,0.242188,-0.241636,0.182985,0.300854,2.40415,12.2763,-0.0862185,0.2598,0.136269,0.442891,2.33588,11.0192,1.87988,13
7009,-0.0345146,1.9375,-0.27149,0.227396,0.248137,2.43093,11.868,-0.148132,0.139301,0.259427,0.23588,1.47905,10.5301,-0.338836,14
7019,-0.0207088,2.72656,-0.271084,0.298067,0.144107,1.82107,11.6886,0.165893,0.139301,0.259427,0.23588,1.47905,10.5301,-0.338836,14
7029,-0.00805342,0.015625,-0.271084,0.298067,0.144107,1.82107,11.6886,0.165893,0.151998,0.355728,0.0833738,2.70231,9.90469,-3.18943,15
7039,-0.0095874,-0.421875,-0.247413,0.384902,-0.00428083,0.428873,12.1392,0.885577,0.304326,0.396481,-0.0145246,4.63903,10.2304,-5.54322,16
7049,-0.0161068,-0.929688,-0.187488,0.443566,-0.138149,-1.27441,13.3497,1.11896,0.493172,0.365965,-0.0752928,7.06594,11.7996,-5.67023,17
7059,-0.0237768,-0.0390625,-0.124228,0.459628,-0.209889,-2.83636,14.8866,0.559138,0.618079,0.339986,-0.0704644,8.84906,13.6944,-3.61171,18
7070,-0.0233933,-1.27344,-0.115071,0.454885,-0.210715,-3.83459,15.8001,-0.250337,0.643059,0.38871,-0.038153,7.4056,14.567,-1.13451,19
7079,-0.0180243,-0.382812,-0.177982,0.44295,-0.157105,-3.68955,14.8902,-1.09149,0.590481,0.524236,-0.0705735,3.01729,13.6127,0.73417,20
7089,-0.00460195,1.78906,-0.177982,0.44295,-0.157105,-3.68955,14.8902,-1.09149,0.590481,0.524236,-0.0705735,3.01729,13.6127,0.73417,21
7099,0.0272282,5.28906,-0.290552,0.429622,-0.101484,-2.48651,11.8907,-1.70928,0.476657,0.697681,-0.204611,-0.892139,11.2711,1.71478,22
7109,0.0813012,5.5,-0.410817,0.424078,-0.0927537,-1.17679,8.16397,-1.37607,0.294046,0.834766,-0.406711,-2.00751,8.63715,1.66952,23
7119,0.153015,9.36719,-0.488372,0.43862,-0.130836,-0.627013,5.53726,-0.297976,0.0584381,0.91102,-0.672985,-1.5543,6.56413,0.787218,23
7129,0.233933,8.88281,-0.475758,0.473716,-0.170823,-0.706175,4.63916,0.492529,-0.167451,0.984348,-0.986265,-1.0653,5.518,-0.714759,24
7139,0.317151,7.53125,-0.376526,0.517318,-0.184549,-0.883354,5.07719,0.565201,-0.27647,1.21546,-1.23623,-0.441078,5.57596,-2.7956,25
7149,0.403054,9.52344,-0.241531,0.563836,-0.18357,-1.00681,6.36466,0.0717464,-0.229397,1.63434,-1.37892,0.51474,6.49969,-4.89232,26
7159,0.484356,10.7578,-0.117574,0.611221,-0.188035,-1.15036,8.05118,-0.651458,-0.094175,1.99793,-1.43451,1.18472,7.99997,-5.97522,27
7169,0.568725,9.30469,-0.117574,0.611221,-0.188035,-1.15036,8.05118,-0.651458,-0.094175,1.99793,-1.43451,1.18472,7.99997,-5.97522,28
7179,0.651176,8.53125,-0.0276126,0.643698,-0.210081,-1.38559,9.70594,-1.34154,0.0565152,2.13484,-1.42941,1.27154,9.6612,-5.62935,29
7189,0.733628,7.53906,0.0242853,0.640524,-0.24474,-1.68682,10.9271,-1.83544,0.188434,2.06354,-1.39917,1.11312,11.0212,-4.31817,30
7199,0.814929,8.42188,0.0461346,0.592952,-0.280485,-2.05293,11.4726,-2.0505,0.286554,1.785,-1.34932,0.971333,11.7003,-2.78751,31
7209,0.899682,7.82812,0.0532074,0.507354,-0.30627,-2.45744,11.3427,-1.99488,0.376619,1.39786,-1.24247,0.942543,11.4464,-1.45164,32
7219,0.982134,8.59375,0.0589405,0.399085,-0.312493,-2.77988,10.6817,-1.70032,0.46343,1.05771,-1.08623,0.930193,10.4636,-0.712312,32
7229,1.06727,8.9375,0.0705632,0.282845,-0.297854,-2.93203,9.74825,-1.34322,0.484088,0.710287,-0.977331,0.839735,9.18798,-1.19943,33
7239,1.15164,9.63281,0.0886888,0.173219,-0.265719,-2.85343,8.77384,-1.07497,0.461997,0.326846,-0.937757,0.662102,7.93893,-2.57092,34
7249,1.24253,10,0.111232,0.0793739,-0.220392,-2.56856,7.96839,-0.888147,0.47569,-0.0215684,-0.911524,0.64378,7.16171,-3.4219,35
7259,1.3315,8.35156,0.111232,0.0793739,-0.220392,-2.56856,7.96839,-0.888147,0.47569,-0.0215684,-0.911524,0.64378,7.16171,-3.4219,36
7269,1.42776,10.3359,0.13604,0.00173655,-0.168253,-2.21187,7.45829,-0.778268,0.521112,-0.375129,-0.869261,0.924971,7.00587,-3.21981,37
7279,1.52171,10.9922,0.160428,-0.0627584,-0.116225,-1.881,7.24748,-0.721607,0.548126,-0.690912,-0.84824,1.17669,7.18255,-2.54714,38
7289,1.6195,8.90625,0.182673,-0.12196,-0.0735544,-1.6228,7.36813,-0.711361,0.520268,-0.86921,-0.88797,1.10013,7.57217,-2.10907,39
7299,1.72228,13.3281,0.201527,-0.18255,-0.0460531,-1.38595,7.70643,-0.823634,0.448462,-0.960413,-0.951774,0.892555,8.07032,-2.0796,40
7309,1.82544,10.9688,0.213202,-0.240629,-0.0336902,-1.07948,8.09942,-1.01356,0.373504,-1.00851,-0.989229,0.70791,8.43945,-2.06758,41
7319,1.93397,9.72656,0.214404,-0.285084,-0.0410945,-0.711433,8.42306,-1.16307,0.321685,-0.999884,-1.00784,0.403837,8.62096,-2.10766,41
7329,2.0448,9.84375,0.207499,-0.310553,-0.0706582,-0.277182,8.56052,-1.25782,0.291971,-0.965446,-1.06108,-0.0132407,8.71625,-2.32785,42
7339,2.16215,10.4531,0.196019,-0.31913,-0.118126,0.169608,8.63334,-1.21023,0.277511,-0.948329,-1.16291,-0.490468,8.83963,-2.42353,43
7349,2.27988,11.3438,0.196019,-0.31913,-0.118126,0.169608,8.63334,-1.21023,0.277511,-0.948329,-1.16291,-0.490468,8.83963,-2.42353,44
7359,2.3911,8.96094,0.179492,-0.314248,-0.182888,0.508241,8.79268,-0.954099,0.272038,-0.945857,-1.28797,-0.935989,9.11192,-2.24181,45
7369,2.50806,12.5312,0.154755,-0.301354,-0.263279,0.737655,8.97718,-0.686137,0.264857,-0.919836,-1.41394,-0.98143,9.51943,-1.80705,46
7379,2.6212,11.0859,0.118915,-0.286052,-0.34644,0.872438,9.13397,-0.596148,0.249131,-0.853775,-1.52506,-0.267748,9.82859,-1.29144,47
7389,2.73471,11.9141,0.0729194,-0.271045,-0.41777,0.803415,9.31341,-0.634278,0.221692,-0.775708,-1.61214,0.842725,9.86363,-0.996412,48
7399,2.84209,9.85938,0.0218144,-0.257189,-0.471835,0.426738,9.4486,-0.67612,0.183394,-0.713588,-1.66028,1.59405,9.6753,-1.08975,49
7409,2.94908,12.4062,-0.0272627,-0.251016,-0.501553,-0.13128,9.35564,-0.709169,0.141618,-0.674138,-1.65119,2.08925,9.38438,-1.49205,50
7419,3.04956,9.60938,-0.067698,-0.266459,-0.490787,-0.643599,9.08441,-0.812266,0.106255,-0.659373,-1.5784,3.07144,9.05079,-1.80056,50
7429,3.1462,10.4766,-0.067698,-0.266459,-0.490787,-0.643599,9.08441,-0.812266,0.106255,-0.659373,-1.5784,3.07144,9.05079,-1.80056,51
7439,3.23747,7.40625,-0.0987962,-0.310322,-0.429736,-1.05033,8.88837,-0.866486,0.0804118,-0.663931,-1.44742,4.4996,8.73674,-1.75379,52
7449,3.32836,9.11719,-0.121208,-0.380818,-0.321693,-1.31255,8.8272,-0.729226,0.0559896,-0.678086,-1.26442,5.66479,8.52718,-1.57283,53
7459,3.40928,7.08594,-0.131282,-0.473537,-0.173777,-1.3176,8.83447,-0.479415,0.0273211,-0.681417,-1.04866,6.13153,8.437,-1.51796,54
7469,3.4902,7.14062,-0.127271,-0.576988,-0.00536436,-1.11066,8.94395,-0.244923,-0.000640346,-0.651055,-0.827992,5.82448,8.46529,-1.83504,55
7479,3.55961,7.57812,-0.109056,-0.677716,0.156741,-0.773516,9.16276,-0.254375,-0.0199385,-0.595439,-0.621427,5.22188,8.57842,-2.55359,56
7489,3.62097,7.35156,-0.0772567,-0.75911,0.294755,-0.300128,9.43076,-0.596426,-0.0263104,-0.551306,-0.437882,4.97625,8.72537,-3.27096,57
7500,3.68463,4.55469,-0.0371505,-0.800119,0.39929,0.294173,9.70629,-0.998909,-0.0205492,-0.541076,-0.276813,5.12928,8.94851,-3.70263,58
7509,3.72145,3.55469,-0.0371505,-0.800119,0.39929,0.294173,9.70629,-0.998909,-0.0205492,-0.541076,-0.276813,5.12928,8.94851,-3.70263,59
7519,3.75098,2.88281,0.00259995,-0.79246,0.470751,1.00622,9.98569,-1.2345,-0.00607653,-0.544178,-0.136946,5.40703,9.31975,-3.67935,59
7529,3.78357,2.26562,0.0323049,-0.744706,0.511893,1.7105,10.2948,-1.33313,0.00782664,-0.536633,-0.0103354,5.53739,9.88408,-3.29787,60
7539,3.81003,2.51562,0.048527,-0.673872,0.529183,2.17694,10.7837,-1.29334,0.013043,-0.503945,0.104411,5.20057,10.6644,-2.95113,61
7549,3.82,1.69531,0.0631732,-0.594147,0.53661,2.33028,11.5354,-1.12084,0.00468333,-0.461179,0.201021,4.72817,11.5773,-2.61968,62
7559,3.81809,-1.35938,0.0923148,-0.503557,0.540836,2.24544,12.3146,-0.954419,-0.0262485,-0.417874,0.295433,4.87084,12.402,-2.16943,63
7569,3.80658,-2.88281,0.142126,-0.39376,0.536705,1.97349,12.834,-0.920568,-0.0913596,-0.346002,0.417773,5.00932,13.0966,-2.14231,64
7579,3.77667,-4.5,0.220111,-0.279102,0.532441,1.54635,13.0326,-1.28658,-0.200041,-0.270901,0.578145,4.55091,13.6838,-2.63776,65
7589,3.71838,-6.92188,0.331553,-0.17665,0.55237,0.914613,13.056,-2.07693,-0.343327,-0.244316,0.772749,4.57542,13.9335,-2.61989,66
7599,3.63286,-9.78125,0.331553,-0.17665,0.55237,0.914613,13.056,-2.07693,-0.343327,-0.244316,0.772749,4.57542,13.9335,-2.61989,67
7609,3.54197,-9.67969,0.452449,-0.0675525,0.595844,-0.0505895,13.0197,-2.73694,-0.495353,-0.292133,1.02335,5.23848,13.8265,-1.88637,68
7619,3.44034,-12.8359,0.539936,0.0609017,0.649952,-1.14447,12.8859,-2.94123,-0.644343,-0.390995,1.33037,5.49679,13.559,-0.950593,68
7629,3.33335,-10.7422,0.566569,0.186781,0.716831,-2.02857,12.6092,-2.72648,-0.796789,-0.450849,1.63583,4.9324,13.2926,0.344008,69
7639,3.22674,-8.96094,0.527347,0.283933,0.793629,-2.64626,12.2655,-2.09668,-0.952512,-0.424688,1.89147,3.63953,13.2342,2.03592,70
7649,3.11706,-10.3984,0.424043,0.330763,0.871693,-3.03737,11.9992,-1.20179,-1.09704,-0.340656,2.07793,1.84879,13.3193,3.51547,71
7659,3.00814,-10.0859,0.261649,0.310455,0.93308,-3.30613,11.8407,-0.275018,-1.20766,-0.246978,2.18108,-0.415181,13.3018,3.85316,72
7669,2.8954,-10.1562,0.261649,0.310455,0.93308,-3.30613,11.8407,-0.275018,-1.20766,-0.246978,2.18108,-0.415181,13.3018,3.85316,73
7679,2.77651,-14.0391,0.07299,0.214313,0.950296,-3.46501,11.6268,0.38994,-1.26343,-0.211649,2.20533,-2.86991,13.0782,2.46782,74
7689,2.66108,-10.3438,-0.0843433,0.0485677,0.919037,-3.33012,11.246,0.482978,-1.23958,-0.267654,2.17692,-4.47799,12.5768,-0.30655,75
7699,2.53759,-12.3594,-0.17328,-0.155489,0.860906,-2.84461,10.8375,0.106247,-1.10105,-0.379359,2.1246,-4.47793,11.7932,-3.38924,76
7709,2.40759,-15.5078,-0.198248,-0.348108,0.794929,-2.1528,10.5764,-0.291249,-0.84161,-0.494971,2.0672,-3.06057,10.9814,-5.39639,77
7719,2.27605,-13.8906,-0.180492,-0.479009,0.724192,-1.41936,10.5039,-0.430176,-0.518864,-0.568383,2.01541,-1.13002,10.517,-5.62278,77
7729,2.14374,-14.3516,-0.135171,-0.523239,0.645458,-0.675037,10.5799,-0.44368,-0.221576,-0.577858,1.97121,0.39049,10.5305,-4.44755,78
7739,2.00837,-14.3516,-0.135171,-0.523239,0.645458,-0.675037,10.5799,-0.44368,-0.221576,-0.577858,1.97121,0.39049,10.5305,-4.44755,79
7749,1.87184,-13.4453,-0.081612,-0.494206,0.560653,0.138205,10.6609,-0.585758,-0.0120289,-0.529174,1.92891,1.26602,10.8558,-2.52243,80
7759,1.73915,-15.3594,-0.0483882,-0.421375,0.472183,0.946769,10.5931,-0.897642,0.0917903,-0.425967,1.88278,1.59577,11.2054,-0.599278,81
7769,1.60647,-11.7578,-0.0537508,-0.330828,0.382544,1.62157,10.3211,-1.24046,0.106733,-0.28472,1.82557,1.56018,11.2582,0.668486,82
7779,1.47531,-16.2188,-0.0983007,-0.242077,0.294787,2.06806,9.86011,-1.42787,0.0735496,-0.136817,1.75053,1.50812,10.808,1.26669,83
7789,1.34914,-10.8281,-0.174355,-0.162179,0.2059,2.12781,9.31691,-1.24602,0.010311,-0.00847608,1.65423,1.48271,9.92517,1.37298,84
7799,1.22565,-10.1641,-0.266214,-0.0912534,0.114161,1.81505,8.78609,-0.669152,-0.0846604,0.0726123,1.51716,1.30629,8.87406,1.11029,85
7809,1.10524,-13.4688,-0.354057,-0.0326542,0.0241236,1.39777,8.23555,-0.00741812,-0.175077,0.105836,1.31743,1.03951,7.86519,0.694385,86
7819,0.988269,-10.5859,-0.423289,0.0134574,-0.0612554,1.10161,7.56313,0.457449,-0.226043,0.124266,1.07952,0.751352,6.97089,0.190843,86
7829,0.872837,-9.55469,-0.423289,0.0134574,-0.0612554,1.10161,7.56313,0.457449,-0.226043,0.124266,1.07952,0.751352,6.97089,0.190843,87
7839,0.762774,-11.6094,-0.463121,0.0538082,-0.139325,0.984133,6.77542,0.66709,-0.242927,0.136974,0.865636,0.417549,6.10951,-0.345677,88
7849,0.656545,-10.4297,-0.469743,0.0929993,-0.205832,0.937458,6.08746,0.790814,-0.214036,0.173053,0.729674,0.0601208,5.25769,-0.721389,89
7859,0.553385,-12.5391,-0.449689,0.129423,-0.263712,0.823323,5.67155,1.02791,-0.110425,0.271264,0.679777,-0.285756,4.6741,-0.931079,90
7869,0.458661,-8.38281,-0.410715,0.157753,-0.318978,0.696411,5.45406,1.29556,0.0407319,0.365819,0.675626,-0.634045,4.51473,-1.07891,91
7879,0.367389,-11.1328,-0.354792,0.17276,-0.367841,0.70518,5.32492,1.37666,0.181865,0.383887,0.665506,-0.994871,4.62377,-1.06699,92
7889,0.282637,-8.97656,-0.283963,0.173051,-0.410979,0.778985,5.29857,1.2737,0.281607,0.344556,0.616811,-1.40393,4.8259,-0.88223,93
7899,0.202869,-7.16406,-0.203652,0.160116,-0.462123,0.78318,5.36799,1.12544,0.330448,0.273289,0.524771,-1.78022,5.05003,-0.630067,94
7909,0.126554,-7.29688,-0.203652,0.160116,-0.462123,0.78318,5.36799,1.12544,0.330448,0.273289,0.524771,-1.78022,5.05003,-0.630067,95
7919,0.0609759,-6.82031,-0.119392,0.13768,-0.528297,0.772913,5.45156,0.998957,0.341512,0.188781,0.396328,-2.00606,5.29439,-0.342715,95
7929,-0.000766992,-5.22656,-0.0362222,0.106744,-0.607731,0.766185,5.58526,0.903705,0.339138,0.122319,0.23858,-2.08381,5.58015,-0.128941,96
7939,-0.046403,-4.0625,0.0407363,0.0678937,-0.695472,0.682179,5.9026,0.790643,0.326285,0.0787237,0.064753,-1.83804,5.93278,-0.0316148,97
7949,-0.0697963,-1.05469,0.107056,0.029806,-0.775073,0.564387,6.46886,0.628585,0.285882,0.0707544,-0.11494,-1.22158,6.39824,0.0166206,98
7959,-0.0697963,0.1875,0.163482,-0.00224642,-0.821874,0.528297,7.26879,0.433304,0.227052,0.108275,-0.302743,-0.566881,6.9263,-0.0397264,99
7969,-0.0686458,0.570312,0.213227,-0.0318586,-0.822114,0.582369,8.10328,0.251931,0.188972,0.122564,-0.500506,-0.143341,7.2996,-0.4031,0
7979,-0.0651943,-0.507812,0.257,-0.066071,-0.778517,0.726627,8.67983,0.168947,0.187383,0.0214659,-0.688275,0.411443,7.42257,-1.08464,1
7989,-0.0594419,-0.0234375,0.257,-0.066071,-0.778517,0.726627,8.67983,0.168947,0.187383,0.0214659,-0.688275,0.411443,7.42257,-1.08464,2
7999,-0.0571409,0.0859375,0.299179,-0.100042,-0.711619,0.916849,8.80974,0.140611,0.203784,-0.18353,-0.815377,1.95302,7.43531,-1.84203,3
8009,-0.0575244,-1.76562,0.346304,-0.116713,-0.648804,0.963033,8.77051,0.10729,0.225515,-0.380947,-0.839212,4.69223,7.57164,-2.36485,4
8019,-0.0586749,-1.125,0.401566,-0.110537,-0.586055,0.794319,9.34084,0.208007,0.247626,-0.510932,-0.755211,7.95653,8.1954,-2.2655,4
8029,-0.0613594,-1.04688,0.455198,-0.0817046,-0.495427,0.583701,10.7655,0.39007,0.269671,-0.563243,-0.572942,11.2499,9.34997,-1.41807,5
8039,-0.0686458,-1.22656,0.468414,-0.0292806,-0.375883,0.52751,12.4221,0.415179,0.311866,-0.504559,-0.307961,13.7459,10.6736,-0.313174,6
8049,-0.0793837,-0.65625,0.415968,0.0337903,-0.237077,0.715992,13.7024,0.177982,0.311866,-0.504559,-0.307961,13.7459,10.6736,-0.313174,7
8059,-0.097408,-1.67188,0.415968,0.0337903,-0.237077,0.715992,13.7024,0.177982,0.352118,-0.375602,-0.00840938,14.3503,11.7372,0.525891,8
8069,-0.12617,-3.95312,0.318969,0.0870066,-0.0753967,1.15312,14.2947,-0.272703,0.341603,-0.252125,0.252825,13.4487,12.0406,1.11574,9
8079,-0.153015,-2.60156,0.199581,0.123485,0.0835123,1.71471,13.9957,-0.647328,0.299075,-0.139531,0.433678,11.8556,11.503,1.51882,10
8089,-0.17334,-1.47656,0.0699386,0.145369,0.197142,2.2145,13.0498,-0.663542,0.258707,-0.0394399,0.528148,9.70848,10.6187,1.66851,11
8099,-0.176025,0,-0.0473352,0.158442,0.253251,2.53708,12.0833,-0.342312,0.217289,0.0319069,0.536233,7.30203,9.92975,1.55301,12
8109,-0.174107,0.632812,-0.128489,0.175162,0.267627,2.67892,11.5096,0.0712311,0.172018,0.0846922,0.465531,4.89054,9.67094,1.06832,12
8119,-0.170656,-0.273438,-0.163058,0.205295,0.256754,2.65189,11.3849,0.290941,0.157746,0.148726,0.342397,2.31907,9.82756,-0.139512,13
8129,-0.159918,1.91406,-0.163058,0.205295,0.256754,2.65189,11.3849,0.290941,0.157746,0.148726,0.342397,2.31907,9.82756,-0.139512,14
8139,-0.151097,2.74219,-0.153998,0.247098,0.213273,2.46679,11.384,-0.095936,0.210997,0.257941,0.182509,0.0588402,10.24,-2.43556,15
8149,-0.143044,0.546875,-0.115055,0.294742,0.122516,1.90967,11.4366,-0.994238,0.337743,0.391989,0.0137887,-0.400455,10.8806,-5.19829,16
8159,-0.144578,-1.53125,-0.0627273,0.345045,0.00661574,0.601029,12.1962,-1.61012,0.52485,0.467371,-0.106385,1.65999,12.0416,-6.59739,17
8169,-0.148413,-0.804688,-0.0117315,0.387582,-0.0800152,-1.20183,13.8157,-1.79539,0.708085,0.469356,-0.151275,5.08818,13.7553,-5.39499,18
8179,-0.156466,-0.398438,0.0094249,0.411599,-0.109018,-2.75723,15.4255,-1.93821,0.794869,0.489235,-0.126958,7.2768,15.4499,-2.57343,19
8189,-0.164136,-0.273438,-0.0268625,0.415414,-0.0843599,-3.60033,16.0906,-2.23675,0.75179,0.595041,-0.0794197,6.24026,15.9733,-0.000825894,19
8200,-0.162602,1.55469,-0.129772,0.414076,-0.0356127,-3.66884,15.2295,-2.40107,0.632109,0.758052,-0.078297,2.38042,14.5957,1.53084,20
8209,-0.148796,2.39062,-0.27809,0.420553,-0.0121288,-2.97869,12.8272,-2.13881,0.470914,0.875898,-0.169425,-1.58629,11.8816,2.1061,21
8219,-0.117733,3.55469,-0.27809,0.420553,-0.0121288,-2.97869,12.8272,-2.13881,0.470914,0.875898,-0.169425,-1.58629,11.8816,2.1061,22
8229,-0.0628934,5.17969,-0.415197,0.426116,-0.0419608,-1.79137,9.77451,-1.98959,0.254345,0.889695,-0.341044,-3.22023,8.96996,2.11446,23
8239,0.0099709,7.85156,-0.488126,0.432984,-0.119688,-0.778244,7.24548,-2.19823,0.00941044,0.877954,-0.54337,-3.38245,6.89694,1.54755,24
8249,0.0862866,9.94531,-0.473156,0.453823,-0.206693,-0.27711,5.94918,-2.22046,-0.203874,0.989109,-0.765719,-3.19119,6.0178,0.0444343,25
8259,0.168355,10.5625,-0.39036,0.496557,-0.271122,-0.179993,5.92987,-1.82325,-0.316366,1.28471,-1.00946,-2.35605,6.12854,-2.01977,26
8269,0.252724,7.07031,-0.281712,0.560083,-0.311768,-0.384977,6.81096,-1.362,-0.289521,1.62281,-1.22743,-1.08135,6.99192,-3.80138,27
8279,0.333642,7.89844,-0.281712,0.560083,-0.311768,-0.384977,6.81096,-1.362,-0.289521,1.62281,-1.22743,-1.08135,6.99192,-3.80138,27
8289,0.415326,10.0703,-0.173185,0.626601,-0.334542,-0.846307,8.15902,-1.1659,-0.162136,1.82633,-1.37024,0.144953,8.26783,-4.73054,28
8299,0.494326,10.2734,-0.081283,0.671534,-0.348061,-1.46758,9.46589,-1.23258,0.00685587,1.86473,-1.43319,1.01021,9.5862,-4.70689,29
8309,0.576778,7.28125,-0.0180212,0.670593,-0.359451,-2.14772,10.4216,-1.38558,0.191364,1.78991,-1.43802,1.46291,10.6433,-4.06899,30
8319,0.658463,9.60938,0.0174719,0.611902,-0.367698,-2.73667,10.897,-1.49291,0.366994,1.61418,-1.40454,1.49453,11.1778,-3.23102,31
8329,0.743215,8.03906,0.0389262,0.506023,-0.364504,-3.05719,10.7478,-1.50214,0.479016,1.29025,-1.34801,1.29985,11.0564,-2.35783,32
8339,0.828352,10.3047,0.0606505,0.375101,-0.345748,-3.02748,10.0562,-1.44604,0.49777,0.869405,-1.28051,1.13618,10.4014,-1.47917,33
8349,0.917706,9.36719,0.0870676,0.243669,-0.314053,-2.64796,9.12088,-1.36204,0.449955,0.489739,-1.21384,0.956926,9.52101,-0.843866,34
8359,1.00361,7.59375,0.0870676,0.243669,-0.314053,-2.64796,9.12088,-1.36204,0.449955,0.489739,-1.21384,0.956926,9.52101,-0.843866,35
8369,1.09411,10.6172,0.113291,0.131503,-0.275522,-2.12774,8.30753,-1.15212,0.368186,0.202904,-1.17489,0.788095,8.69898,-0.756964,35
8379,1.18385,8.55469,0.134543,0.0466609,-0.236,-1.66237,7.80939,-0.88596,0.281873,0.00173016,-1.15522,0.837978,8.09048,-1.04877,36
8389,1.27858,10.1328,0.151899,-0.00929343,-0.197054,-1.27236,7.59703,-0.730264,0.227676,-0.122177,-1.13212,0.969049,7.69906,-1.31848,37
8399,1.37062,8.40625,0.168303,-0.0403912,-0.160145,-0.94776,7.52766,-0.675194,0.222939,-0.20493,-1.12627,0.97498,7.46186,-1.39966,38
8409,1.46649,10.5,0.183725,-0.0569714,-0.128482,-0.726674,7.54788,-0.635545,0.254717,-0.269109,-1.12518,0.902121,7.38099,-1.45477,39
8419,1.56121,11.5391,0.196791,-0.0708409,-0.106899,-0.647448,7.71528,-0.609104,0.313017,-0.337396,-1.07637,0.848391,7.4685,-1.67466,40
8429,1.65785,8.10938,0.207849,-0.0887015,-0.0952918,-0.610128,7.95033,-0.712233,0.390091,-0.441823,-0.970418,1.13683,7.6985,-1.8507,41
8439,1.75411,10.25,0.215732,-0.107381,-0.0899365,-0.491539,8.16774,-0.902085,0.390091,-0.441823,-0.970418,1.13683,7.6985,-1.8507,42
8449,1.85267,9.63281,0.215732,-0.107381,-0.0899365,-0.491539,8.16774,-0.902085,0.461218,-0.551148,-0.873786,1.5501,7.99255,-1.81018,42
8459,1.95084,8.36719,0.218803,-0.121574,-0.0932265,-0.246074,8.28952,-1.0222,0.515057,-0.657045,-0.844738,1.56648,8.24778,-1.61343,43
8469,2.04902,8.9375,0.216578,-0.131406,-0.107466,0.0896786,8.31122,-1.02696,0.560058,-0.790023,-0.872501,1.37178,8.47741,-1.24847,44
8479,2.14911,11.7812,0.206584,-0.137756,-0.133311,0.398746,8.38925,-0.937983,0.591353,-0.914188,-0.940949,1.13506,8.74503,-0.889037,45
8489,2.24345,7.67969,0.186454,-0.142097,-0.170194,0.588052,8.56842,-0.858106,0.588352,-1.01891,-1.02573,0.999628,9.0436,-0.746081,46
8499,2.34048,9.08594,0.154109,-0.145776,-0.211379,0.619071,8.82178,-0.853832,0.545859,-1.13405,-1.0927,1.1872,9.29969,-0.791318,47
8509,2.43137,8.60938,0.108661,-0.146948,-0.250255,0.49743,9.09029,-0.915665,0.474957,-1.22392,-1.13084,1.58353,9.40203,-1.03644,48
8519,2.52379,9.67969,0.0557505,-0.148199,-0.275926,0.325052,9.22447,-1.06058,0.379913,-1.2438,-1.14135,2.27533,9.27391,-1.3369,49
8529,2.61889,11.0156,0.0557505,-0.148199,-0.275926,0.325052,9.22447,-1.06058,0.379913,-1.2438,-1.14135,2.27533,9.27391,-1.3369,50
8539,2.71477,12.1016,0.00305325,-0.154645,-0.275434,0.159947,9.22937,-1.14106,0.268248,-1.17088,-1.13578,3.21672,8.97871,-1.40592,50
8549,2.81409,10.9609,-0.0435063,-0.172056,-0.245995,-0.0128078,9.17389,-1.02878,0.160853,-1.00693,-1.11716,4.05916,8.70892,-1.29752,51
8559,2.90882,10.0625,-0.0786183,-0.210532,-0.185237,-0.118358,9.11674,-0.806315,0.0791475,-0.812219,-1.07227,4.6711,8.61212,-1.21817,52
8569,3.00392,10.1094,-0.100933,-0.271345,-0.0953666,-0.141049,9.21414,-0.498923,0.0307033,-0.650762,-0.995231,4.72352,8.73076,-1.37588,53
8579,3.09213,9.47656,-0.108411,-0.344858,0.0110317,-0.106082,9.4519,-0.25918,0.00610397,-0.553888,-0.890942,4.28003,8.98081,-1.86905,54
8589,3.17842,7.96094,-0.0970444,-0.416676,0.121041,0.0230038,9.7047,-0.299577,-0.00307516,-0.501796,-0.774999,3.92392,9.18896,-2.50393,55
8599,3.25588,6.97656,-0.0684277,-0.467561,0.217956,0.222867,9.90004,-0.568931,0.000434403,-0.444976,-0.664491,3.79836,9.28008,-3.0391,56
8609,3.33258,7.1875,-0.0684277,-0.467561,0.217956,0.222867,9.90004,-0.568931,0.000434403,-0.444976,-0.664491,3.79836,9.28008,-3.0391,57
8619,3.39701,5.625,-0.0291689,-0.482371,0.290129,0.489167,9.97694,-0.837142,0.0118388,-0.37869,-0.564923,3.77164,9.32313,-3.29721,58
8629,3.4645,6.625,0.0102891,-0.460102,0.336613,0.810208,10.021,-0.958916,0.0273883,-0.329734,-0.475995,3.75883,9.45071,-3.15062,58
8639,3.52855,7.23438,0.0363877,-0.412953,0.36173,1.10638,10.2239,-0.975009,0.0446684,-0.284884,-0.399573,3.73891,9.7335,-2.65456,59
8649,3.58684,4.92188,0.0402503,-0.360489,0.379958,1.32889,10.6029,-0.974792,0.0567061,-0.219418,-0.337799,3.76553,10.1228,-2.07885,60
8659,3.64973,7.89062,0.0234038,-0.324086,0.401308,1.39389,11.0116,-1.0754,0.051298,-0.139667,-0.282437,3.69996,10.5809,-1.83807,61
8669,3.70227,4.33594,0.00103511,-0.315072,0.427577,1.20463,11.4561,-1.2207,0.0263252,-0.0580947,-0.222345,3.49624,11.0966,-2.10672,62
8679,3.73333,1.27344,0.00103511,-0.315072,0.427577,1.20463,11.4561,-1.2207,0.0263252,-0.0580947,-0.222345,3.49624,11.0966,-2.10672,63
8689,3.74024,0.515625,-0.00447427,-0.325593,0.460733,0.812072,11.9537,-1.26746,-0.0121993,-0.0188635,-0.138031,3.63802,11.5894,-2.54898,64
8699,3.73487,-0.601562,0.0195283,-0.334186,0.492449,0.322933,12.3659,-1.28825,-0.0650389,-0.0410208,5.5E-05,4.19037,12.0091,-2.88931,65
8709,3.71953,-1.64844,0.0788408,-0.32648,0.51825,-0.23601,12.6482,-1.36582,-0.138847,-0.0912584,0.200378,4.86853,12.3873,-2.87725,65
8719,3.68233,-4,0.179963,-0.297023,0.547183,-0.852197,12.7859,-1.49363,-0.24767,-0.156293,0.460999,4.89001,12.8139,-2.81416,66
8729,3.62327,-5.42188,0.324388,-0.247437,0.596187,-1.33233,12.6938,-1.93421,-0.397332,-0.216522,0.77096,4.06727,13.2008,-2.98681,67
8739,3.54465,-9.125,0.488118,-0.175978,0.680786,-1.64248,12.4652,-2.6603,-0.564264,-0.256915,1.09691,3.76099,13.2351,-2.4563,68
8749,3.45453,-7.82812,0.616735,-0.0711022,0.785876,-2.00401,12.1542,-3.00494,-0.716873,-0.303961,1.42139,3.98678,12.9428,-0.939914,69
8759,3.35482,-9.54688,0.664924,0.051013,0.882753,-2.3871,11.7456,-2.64758,-0.848996,-0.362879,1.72661,3.72575,12.691,0.966135,70
8769,3.25627,-8.76562,0.664924,0.051013,0.882753,-2.3871,11.7456,-2.64758,-0.848996,-0.362879,1.72661,3.72575,12.691,0.966135,71
8779,3.15464,-10.1719,0.617498,0.150675,0.96128,-2.71069,11.4513,-1.81196,-0.972187,-0.384173,1.97296,2.58363,12.723,2.72524,72
8789,3.05186,-10.8828,0.483086,0.194872,1.02199,-2.92354,11.3595,-0.894787,-1.08544,-0.338858,2.1358,0.677722,12.9566,3.63102,73
8799,2.94372,-9.45312,0.294176,0.164624,1.05869,-3.01655,11.3652,-0.204275,-1.17207,-0.274014,2.21239,-1.42252,13.0794,3.08972,73
8809,2.83212,-11.2891,0.104559,0.0591597,1.05748,-3.02056,11.3346,0.0633397,-1.20766,-0.262893,2.22161,-3.0586,12.8772,0.889239,74
8819,2.71439,-13.1172,-0.0339622,-0.103405,1.02106,-2.76321,11.1739,-0.181127,-1.15379,-0.28272,2.19014,-3.48944,12.2991,-2.3079,75
8829,2.59167,-13.75,-0.105873,-0.281041,0.966986,-2.18274,11.0038,-0.623566,-0.973977,-0.239657,2.13452,-2.50245,11.5041,-5.06896,76
8839,2.4655,-14.2188,-0.126156,-0.419683,0.902164,-1.46086,10.9743,-0.857856,-0.687017,-0.185667,2.07742,-0.846664,10.8779,-6.21658,77
8849,2.33281,-13.25,-0.126156,-0.419683,0.902164,-1.46086,10.9743,-0.857856,-0.687017,-0.185667,2.07742,-0.846664,10.8779,-6.21658,78
8859,2.19935,-11.9062,-0.109508,-0.480842,0.821142,-0.707385,11.0429,-0.800953,-0.379559,-0.240233,2.03966,0.529049,10.7053,-5.56177,79
8869,2.06436,-17.6094,-0.0690843,-0.460855,0.721952,0.133447,11.0955,-0.648841,-0.133908,-0.371802,2.01806,1.23907,10.9602,-3.76885,80
8879,1.9309,-16.0078,-0.028558,-0.384777,0.613168,1.05193,11.0886,-0.674266,0.0184104,-0.521477,1.99631,1.5291,11.386,-1.57453,81
8889,1.80128,-15.8594,-0.0161524,-0.279282,0.502724,1.8514,10.9868,-0.905919,0.0798953,-0.616619,1.95494,1.70128,11.6478,0.379556,81
8899,1.67511,-13.8984,-0.0461133,-0.164297,0.395584,2.38523,10.7115,-1.16968,0.0746761,-0.547707,1.87521,1.74281,11.4667,1.55404,82
8909,1.54741,-11.625,-0.114103,-0.0570705,0.294856,2.61722,10.2133,-1.27317,0.0359691,-0.342239,1.75644,1.64132,10.771,1.95131,83
8920,1.42047,-10.9375,-0.207962,0.0344766,0.194385,2.41634,9.55962,-1.01678,-0.0278667,-0.111549,1.61439,1.34756,9.71693,1.80002,84
8929,1.30657,-14.9375,-0.207962,0.0344766,0.194385,2.41634,9.55962,-1.01678,-0.0278667,-0.111549,1.61439,1.34756,9.71693,1.80002,85
8939,1.18999,-10.5547,-0.308834,0.108798,0.089594,1.81256,8.87178,-0.425045,-0.119533,0.049936,1.44608,0.823103,8.56593,1.25158,86
8949,1.07954,-11.4844,-0.39367,0.165419,-0.0122252,1.1752,8.13371,0.18564,-0.208738,0.112823,1.23917,0.343797,7.51022,0.549918,87
8959,0.967944,-10.4531,-0.446722,0.210249,-0.100731,0.811975,7.27785,0.544723,-0.258821,0.13516,1.02365,0.0693339,6.58743,-0.0947561,88
8969,0.860565,-12.1875,-0.464043,0.250652,-0.171695,0.710145,6.44305,0.700163,-0.266074,0.154342,0.829584,-0.10517,5.83265,-0.585027,88
8979,0.762007,-10.6562,-0.450519,0.287781,-0.230103,0.684161,5.82339,0.853492,-0.23576,0.173049,0.682442,-0.32932,5.32109,-0.824219,89
8989,0.663448,-8.5,-0.412579,0.318519,-0.281048,0.721531,5.38024,0.992859,-0.148869,0.220169,0.620075,-0.569878,5.05404,-0.790797,90
8999,0.570259,-10.6953,-0.356786,0.339728,-0.325016,0.862746,5.06805,0.97991,-0.010382,0.308148,0.610025,-0.737919,4.97921,-0.648336,91
9009,0.482055,-7.59375,-0.356786,0.339728,-0.325016,0.862746,5.06805,0.97991,-0.010382,0.308148,0.610025,-0.737919,4.97921,-0.648336,92
9019,0.400753,-9.05469,-0.291836,0.348143,-0.370004,0.919506,4.97608,0.843944,0.12922,0.398314,0.586484,-1.14578,5.07713,-0.602155,93
