right_q,right_q_dot,left_q,left_q_dot,pelv_ang_1,pelv_ang_2,pelv_ang_3,pelv_acc_1,pelv_acc_1,pelv_acc_3,right_back_ang_x,right_back_ang_y,right_back_ang_z,right_back_acc_x,right_back_acc_y,right_back_acc_z,left_back_ang_x,left_back_ang_y,left_back_ang_z,left_back_acc_x,left_back_acc_y,left_back_acc_z,,,,Label
-0.2798,-0.1029,-0.0185,0.2801,-1.0488,-0.2831,-0.3572,0.3719,9.5894,0.9101,-0.1406,0.579,-0.1613,9.0898,-1.9942,3.8158,0.7818,1.2652,-0.117,9.6066,-1.7705,1.7659,-0.988476,0,1698651635.686,0
-0.2798,-0.0748,-0.0149,0.3022,-1.0913,-0.2376,-0.3622,0.4746,9.448,0.8522,-0.0363,0.5466,-0.1982,9.0793,-2.0041,3.7718,0.8519,1.043,-0.1527,9.5676,-1.7607,1.7281,-0.981878,0,1698651635.6957,1
-0.2798,-0.0664,-0.011,0.3415,-1.0885,-0.1314,-0.3268,0.5488,9.3953,0.7926,0.0899,0.4694,-0.2175,9.0434,-2.0245,3.7379,0.8466,0.8006,-0.2179,9.5151,-1.7646,1.6956,-0.966423,0,1698651635.7053,1
-0.2797,-0.061,-0.0077,0.3578,-1.0625,-0.0124,-0.3027,0.5727,9.5306,0.7859,0.2152,0.377,-0.2291,9.0609,-2.0469,3.7413,0.8213,0.6319,-0.2796,9.5144,-1.7671,1.7249,-0.936097,0,1698651635.7157,2
-0.2796,-0.0424,-0.0052,0.3299,-1.0534,0.1091,-0.3198,0.6352,9.6292,0.7986,0.3816,0.3241,-0.2142,9.1119,-2.0701,3.7837,0.8808,0.5384,-0.3106,9.5342,-1.7923,1.7677,-0.880205,0,1698651635.7254,3
-0.2795,-0.0366,-0.003,0.3034,-1.1103,0.2648,-0.3586,0.8127,9.535,0.8429,0.5526,0.3809,-0.1856,9.1269,-2.0953,3.8551,0.9689,0.4231,-0.326,9.5301,-1.8375,1.7517,-0.775135,0,1698651635.7353,3
-0.2795,-0.0435,-0.0009,0.2906,-1.2021,0.4044,-0.4041,0.9902,9.5228,0.8452,0.6973,0.4805,-0.1498,9.1333,-2.1261,3.8996,1.0108,0.2518,-0.35,9.5162,-1.8796,1.7402,-0.654732,0,1698651635.7458,4
-0.2794,-0.0508,0.0015,0.3094,-1.2215,0.5231,-0.4514,1.0022,9.5791,0.8193,0.8574,0.493,-0.0785,9.1444,-2.1595,3.9005,0.9522,0.1324,-0.4112,9.4901,-1.8941,1.7362,-0.579543,0,1698651635.7557,5
-0.2793,-0.0278,0.0044,0.3223,-1.1377,0.7125,-0.4907,0.9645,9.5621,0.7849,1.05,0.34,0.0425,9.1284,-2.1883,3.878,0.7899,0.2739,-0.5142,9.4242,-1.8821,1.7364,-0.535251,0,1698651635.7655,5
-0.2792,0.0007,0.0073,0.2915,-1.0249,0.9661,-0.5135,1.0068,9.5019,0.7492,1.2311,0.1138,0.1834,9.0791,-2.2021,3.865,0.6886,0.4862,-0.5771,9.3521,-1.8843,1.717,-0.445952,0,1698651635.7756,6
-0.279,0.0133,0.0097,0.2656,-0.8904,1.1997,-0.5245,1.0268,9.5216,0.7698,1.3641,0.0182,0.2885,9.0659,-2.2003,3.8606,0.6474,0.5862,-0.5723,9.3675,-1.8801,1.7279,-0.246354,0,1698651635.7861,7
-0.2781,0.0339,0.0111,0.2345,-0.8865,1.3863,-0.5994,0.9673,9.5776,0.8098,1.4912,0.1638,0.3386,9.1313,-2.2077,3.887,0.8284,0.7799,-0.5046,9.4557,-1.9055,1.8136,0.005783,0,1698651635.7958,7
-0.2765,0.0667,0.0116,0.1856,-1.1024,1.5159,-0.7326,1.0074,9.7096,0.7851,1.6369,0.4055,0.3605,9.1882,-2.2011,3.9001,1.3006,0.9959,-0.3958,9.5201,-1.9153,1.8799,0.223917,0,1698651635.806,8
-0.2746,0.1042,0.0117,0.1441,-1.2497,1.5807,-0.837,0.8979,9.8682,0.702,1.7577,0.5482,0.3631,9.1606,-2.1653,3.8515,1.7491,1.0214,-0.2892,9.5314,-1.8635,1.9036,0.396798,0,1698651635.8159,9
-0.2726,0.1338,0.0122,0.1318,-1.2517,1.6823,-0.8822,0.6643,9.8837,0.5736,1.8583,0.5158,0.3531,9.0798,-2.1428,3.7982,2.0702,0.8665,-0.2003,9.5012,-1.8234,1.9078,0.531459,0,1698651635.8253,9
-0.2707,0.1631,0.0134,0.1402,-1.1458,1.8378,-0.8372,0.551,9.6798,0.5358,1.9706,0.2989,0.3394,9.0231,-2.1195,3.7311,2.2651,0.5859,-0.1476,9.4443,-1.7972,1.9039,0.636035,0,1698651635.8356,10
-0.269,0.1884,0.0153,0.1667,-0.9843,1.9748,-0.7495,0.4828,9.3995,0.6147,2.0918,-0.0443,0.3202,8.9971,-2.0856,3.7103,2.3329,0.2649,-0.1262,9.4223,-1.7596,1.9187,0.717204,0,1698651635.8454,11
-0.2675,0.1925,0.0174,0.2009,-0.789,2.0659,-0.6549,0.3651,9.3823,0.6202,2.1809,-0.402,0.3079,8.9586,-2.0625,3.7527,2.3362,-0.0492,-0.1342,9.4634,-1.722,1.9412,0.780197,0,1698651635.8552,11
-0.2661,0.187,0.0196,0.208,-0.6074,2.1494,-0.5703,0.2216,9.4002,0.6068,2.216,-0.6969,0.2804,8.9761,-2.0245,3.791,2.2859,-0.392,-0.1507,9.5366,-1.6723,1.9509,0.828655,0,1698651635.8655,12
-0.2644,0.1745,0.022,0.2137,-0.5346,2.2322,-0.5013,0.213,9.3456,0.6065,2.2646,-0.9447,0.2258,9.0666,-1.9514,3.8364,2.1769,-0.8194,-0.1678,9.6385,-1.6211,1.9352,0.858639,0,1698651635.8754,13
-0.2621,0.1831,0.0243,0.2148,-0.4618,2.2232,-0.422,0.2151,9.4289,0.6245,2.3279,-1.1457,0.1698,9.1693,-1.87,3.9081,2.0446,-1.326,-0.2041,9.7616,-1.5851,1.8832,0.880191,0,1698651635.8855,13
-0.2586,0.2238,0.026,0.2009,-0.3201,2.1804,-0.3383,0.1687,9.5908,0.6981,2.372,-1.2601,0.1203,9.283,-1.8111,3.9833,1.8813,-1.7826,-0.2485,9.8823,-1.5461,1.8244,0.904058,0,1698651635.895,14
-0.2544,0.2626,0.0275,0.1801,-0.1708,2.2239,-0.2444,0.1027,9.8091,0.7253,2.4232,-1.2867,0.0725,9.4068,-1.7685,4.058,1.7067,-2.075,-0.2795,10.0001,-1.499,1.8062,0.924612,0,1698651635.9049,15
-0.2501,0.2914,0.0285,0.1481,-0.1077,2.3335,-0.1262,0.1103,10.1278,0.6622,2.4784,-1.2256,0.0183,9.545,-1.7318,4.1599,1.5942,-2.1845,-0.2917,10.1538,-1.4606,1.8282,0.941111,0,1698651635.9151,15
-0.2458,0.3295,0.029,0.125,-0.0817,2.3939,0.0048,0.0827,10.4069,0.7196,2.5323,-1.0954,-0.0485,9.7084,-1.6869,4.2804,1.5212,-2.1529,-0.2833,10.3457,-1.4262,1.8498,0.954157,0,1698651635.9249,16
-0.241,0.3606,0.0291,0.1136,-0.07,2.3854,0.1116,-0.024,10.479,0.9264,2.5887,-1.0242,-0.108,9.8503,-1.6175,4.4109,1.5489,-2.0482,-0.2802,10.5201,-1.3634,1.8743,0.964279,0,1698651635.9355,17
-0.2355,0.4105,0.0289,0.08,-0.0976,2.3772,0.2065,-0.1966,10.5631,1.0699,2.6282,-1.0097,-0.1653,9.9787,-1.5035,4.5102,1.7153,-2.0273,-0.288,10.6356,-1.2638,1.8848,0.971967,0,1698651635.9454,17
-0.23,0.449,0.0288,0.0289,-0.1164,2.3366,0.3067,-0.4382,10.7544,1.1403,2.6248,-0.9985,-0.238,10.0718,-1.3586,4.619,1.7772,-1.9907,-0.3272,10.741,-1.1175,1.9063,0.9772,0,1698651635.9554,18
-0.2256,0.4196,0.0286,0.0022,-0.1328,2.2421,0.4135,-0.6183,10.8925,1.2695,2.531,-0.9412,-0.3447,10.1283,-1.1987,4.7696,1.6498,-1.8839,-0.3893,10.8643,-0.9315,1.9449,0.973029,0,1698651635.9659,19
-0.2221,0.3934,0.0278,-0.0102,-0.1651,2.1576,0.5058,-0.6906,10.8356,1.4617,2.3627,-0.843,-0.4864,10.1455,-1.0355,4.9155,1.3445,-2.0966,-0.4741,10.9411,-0.7439,1.9881,0.944711,0,1698651635.976,19
-0.2191,0.384,0.0259,-0.0671,-0.047,1.9803,0.5809,-0.704,10.6159,1.6456,2.203,-0.8367,-0.5981,10.0687,-0.8898,5.0309,1.0776,-2.3368,-0.6133,10.907,-0.5913,2.0068,0.905819,0,1698651635.9867,20
-0.2169,0.3548,0.0222,-0.1698,0.1504,1.7642,0.6392,-0.7139,10.6042,1.782,2.0516,-0.83,-0.6773,9.9952,-0.7824,5.0909,0.9709,-2.3589,-0.77,10.8123,-0.4808,1.9979,0.877368,0,1698651635.9963,21
-0.2152,0.3104,0.0162,-0.2919,0.2517,1.6535,0.6692,-0.7108,10.732,1.8499,1.8676,-0.651,-0.7703,9.9772,-0.7282,5.1313,0.8232,-2.3548,-0.878,10.7535,-0.4187,2.0016,0.873176,0,1698651636.0057,21
-0.2133,0.2744,0.0086,-0.4388,0.3228,1.5803,0.6839,-0.6181,10.63,1.9327,1.7026,-0.3338,-0.8536,9.9612,-0.7069,5.1753,0.625,-2.2629,-0.9304,10.6522,-0.4047,2.0006,0.89108,0,1698651636.0152,22
-0.2113,0.2716,-0.0005,-0.6089,0.3814,1.5063,0.6604,-0.4344,10.4131,2.0119,1.5914,-0.0329,-0.8782,9.8604,-0.6949,5.1958,0.448,-2.1081,-0.995,10.465,-0.3781,1.9978,0.911511,0,1698651636.0256,23
-0.2087,0.2937,-0.0115,-0.7787,0.3314,1.4711,0.5919,-0.2281,10.3564,1.989,1.5135,0.2297,-0.8412,9.703,-0.6787,5.1917,0.1912,-2.0313,-1.0392,10.2784,-0.3309,1.9775,0.929749,0,1698651636.0356,23
-0.2052,0.3149,-0.0241,-0.9415,0.2662,1.4777,0.485,-0.1098,10.4423,1.9121,1.4582,0.4738,-0.7629,9.5433,-0.6658,5.1564,-0.0934,-2.0049,-1.0266,10.0496,-0.3245,1.9837,0.944526,0,1698651636.0456,24
-0.2003,0.3441,-0.0378,-1.1023,0.3059,1.523,0.3679,-0.034,10.2408,1.893,1.4144,0.6353,-0.6434,9.3212,-0.6352,5.1154,-0.3018,-1.9588,-0.9683,9.7422,-0.3361,2.0238,0.956262,0,1698651636.0559,25
-0.1939,0.3973,-0.0531,-1.2169,0.3154,1.5965,0.2531,0.0842,9.8604,1.9648,1.3897,0.7377,-0.4866,9.073,-0.5836,5.0461,-0.5019,-1.9255,-0.8855,9.4599,-0.2537,2.0274,0.965468,0,1698651636.0661,26
-0.187,0.4631,-0.069,-1.2505,0.3185,1.6442,0.1366,0.0991,9.6743,1.9847,1.4268,0.8172,-0.3154,8.8482,-0.5361,4.949,-0.6523,-1.7719,-0.8161,9.2131,-0.1717,2.0566,0.972708,0,1698651636.076,26
-0.1801,0.5152,-0.0845,-1.2501,0.4156,1.7102,0.0359,-0.0131,9.3974,1.958,1.4828,0.8449,-0.1526,8.6078,-0.477,4.8829,-0.6907,-1.5392,-0.7537,8.9992,-0.1335,2.0705,0.978235,0,1698651636.0863,27
-0.1727,0.5525,-0.1003,-1.265,0.4969,1.8203,-0.05,-0.0847,8.9302,2.0051,1.5315,0.829,-0.0142,8.3754,-0.3707,4.8533,-0.6225,-1.3644,-0.683,8.875,-0.0653,2.0345,0.98266,0,1698651636.0958,28
-0.1655,0.5743,-0.1157,-1.315,0.4442,1.8581,-0.1439,-0.1594,8.7537,2.0345,1.5991,0.8404,0.0746,8.2723,-0.2411,4.861,-0.509,-1.44,-0.5838,8.8671,0.0154,2.0419,0.986354,0,1698651636.1054,28
-0.1585,0.6132,-0.1312,-1.3517,0.3563,1.8312,-0.2323,-0.3903,9.0143,1.9269,1.7062,0.8553,0.1341,8.3046,-0.1273,4.8902,-0.3374,-1.8353,-0.4616,8.9464,0.103,2.0636,0.989347,0,1698651636.1156,29
-0.1515,0.6462,-0.1474,-1.394,0.3001,1.8189,-0.2872,-0.6944,9.4233,1.7193,1.8873,0.8148,0.2043,8.394,-0.0176,4.9393,-0.1418,-2.3844,-0.3317,9.0983,0.1785,2.0551,0.991715,0,1698651636.1256,30
-0.1448,0.6511,-0.1634,-1.4281,0.2623,1.7948,-0.3231,-0.9983,9.6993,1.5548,2.1627,0.7007,0.2911,8.5258,0.0736,4.9952,0.0902,-2.9277,-0.1959,9.3155,0.2428,2.0153,0.993562,0,1698651636.1358,30
-0.1384,0.6463,-0.1799,-1.4044,0.3037,1.7479,-0.328,-1.2878,9.7097,1.5375,2.4644,0.515,0.3773,8.6933,0.1465,5.0329,0.4058,-3.3283,-0.0751,9.5444,0.3093,1.9548,0.994999,0,1698651636.1456,31
-0.1323,0.6249,-0.1952,-1.4241,0.2907,1.657,-0.3318,-1.4722,9.7529,1.5641,2.6833,0.3383,0.4051,8.882,0.2218,5.0641,0.7414,-3.5969,0.0256,9.7924,0.3794,1.892,0.996116,0,1698651636.1557,32
-0.1267,0.6169,-0.2089,-1.4578,0.1144,1.5097,-0.3739,-1.6252,9.966,1.5398,2.7366,0.2744,0.3269,9.0858,0.2707,5.1127,1.1179,-3.7569,0.1012,10.0698,0.4322,1.8122,0.996983,0,1698651636.1651,32
-0.121,0.6008,-0.222,-1.4159,0.0227,1.3092,-0.4066,-1.8615,10.3012,1.5058,2.594,0.3227,0.1742,9.2488,0.3029,5.1496,1.4717,-3.8795,0.1344,10.2957,0.4594,1.6925,0.997656,0,1698651636.1756,33
-0.1154,0.5741,-0.2339,-1.3583,0.1568,1.1151,-0.421,-2.0403,10.4956,1.5103,2.3468,0.3245,0.0377,9.3432,0.3363,5.1528,1.6664,-4.0855,0.1176,10.4299,0.4652,1.5552,0.998179,0,1698651636.1856,34
-0.1103,0.5489,-0.2446,-1.3129,0.3317,0.9499,-0.4509,-2.0071,10.3873,1.5778,2.0501,0.2619,-0.0582,9.4252,0.3343,5.1607,1.7554,-4.1987,0.0312,10.5326,0.4393,1.4132,0.998584,0,1698651636.195,34
-0.1059,0.5175,-0.2545,-1.26,0.4837,0.7764,-0.5235,-1.8757,10.2816,1.6742,1.7062,0.3105,-0.1556,9.5144,0.2846,5.1318,1.7649,-4.1272,-0.1075,10.5723,0.3716,1.2292,0.998899,0,1698651636.205,35
-0.1017,0.4964,-0.2638,-1.2024,0.6163,0.5649,-0.6558,-1.7958,10.2205,1.7112,1.3266,0.5042,-0.2577,9.5665,0.2112,5.0723,1.7169,-3.8893,-0.2518,10.5441,0.2893,1.0574,0.999141,0,1698651636.2159,36
-0.0977,0.4659,-0.2728,-1.1497,0.7252,0.3308,-0.8147,-1.7102,10.1662,1.6774,1.0003,0.6742,-0.3268,9.5445,0.1617,5.0156,1.6217,-3.4574,-0.375,10.4919,0.2275,0.9319,0.999317,0,1698651636.2266,36
-0.0943,0.4186,-0.2812,-1.0682,0.8636,0.0842,-0.974,-1.6366,10.1301,1.649,0.8601,0.7108,-0.3455,9.5081,0.1246,4.9191,1.5298,-2.8467,-0.4588,10.4172,0.1707,0.8115,0.999312,0,1698651636.2356,37
-0.0918,0.3868,-0.2878,-0.9559,0.9752,-0.1355,-1.1489,-1.5713,10.1074,1.5037,0.8535,0.6447,-0.3208,9.4959,0.0688,4.822,1.484,-2.1423,-0.5008,10.3309,0.1074,0.7137,0.994575,0,1698651636.2454,38
-0.0895,0.3724,-0.2943,-0.8832,1.0271,-0.2908,-1.3418,-1.4674,10.0302,1.3537,0.8475,0.5319,-0.265,9.4955,0.014,4.748,1.4765,-1.4749,-0.513,10.2253,0.0515,0.6519,0.96664,0,1698651636.2555,38
-0.0868,0.3526,-0.301,-0.8424,1.0605,-0.4506,-1.5274,-1.3544,9.812,1.3516,0.8352,0.3063,-0.1867,9.4321,-0.0198,4.6733,1.4827,-0.8884,-0.5046,10.1069,0.0161,0.62,0.86682,0,1698651636.2656,39
-0.0841,0.3345,-0.307,-0.7958,1.1657,-0.6344,-1.6903,-1.2811,9.5397,1.3777,0.858,-0.0641,-0.0927,9.3259,-0.0193,4.5803,1.4798,-0.4039,-0.4827,9.9875,0.0009,0.5975,0.752176,0,1698651636.2754,40
-0.0813,0.3147,-0.3129,-0.7392,1.2236,-0.7831,-1.8518,-1.16,9.3759,1.3523,0.8093,-0.3858,-0.0359,9.2766,-0.0227,4.5022,1.4954,0.027,-0.4427,9.9041,-0.0039,0.5702,0.669137,0,1698651636.2857,40
-0.0784,0.2967,-0.3186,-0.6932,1.139,-0.902,-1.9781,-1.0675,9.2915,1.3046,0.6351,-0.5352,-0.0411,9.2335,-0.0237,4.4416,1.5493,0.4512,-0.3725,9.8478,0.0051,0.5431,0.581231,0,1698651636.2952,41
-0.0758,0.2889,-0.3232,-0.6462,1.0639,-0.985,-2.0344,-1.0796,9.1797,1.2244,0.4555,-0.6555,-0.058,9.1522,0.0049,4.38,1.6296,0.7857,-0.2898,9.7723,0.0309,0.5109,0.49523,0,1698651636.3055,42
-0.0734,0.2726,-0.3274,-0.6021,0.9911,-1.0069,-2.0543,-1.0762,9.0381,1.141,0.2793,-0.8342,-0.0668,9.0834,0.0216,4.329,1.6459,0.9587,-0.217,9.6931,0.0557,0.4762,0.414418,0,1698651636.3156,42
-0.0707,0.2699,-0.3316,-0.5503,0.7164,-1.0077,-2.0791,-1.0174,8.9564,1.0795,0.0777,-0.9959,-0.0856,9.0449,0.0305,4.3017,1.6159,1.0325,-0.1545,9.6401,0.072,0.4549,0.329898,0,1698651636.3253,43
-0.0672,0.2888,-0.3357,-0.4941,0.4144,-1.0347,-2.0797,-0.9329,8.9237,1.0197,-0.1505,-1.142,-0.1207,9.0004,0.0553,4.2369,1.6182,1.0353,-0.1196,9.5813,0.0812,0.4399,0.217224,0,1698651636.3364,44
-0.0628,0.341,-0.3388,-0.4353,0.3128,-1.0966,-1.9906,-0.9962,8.8465,1.0114,-0.3107,-1.3833,-0.1377,8.9251,0.0804,4.1478,1.689,0.9676,-0.13,9.5177,0.0972,0.4224,0.081856,0,1698651636.3457,44
-0.0582,0.3816,-0.3405,-0.3588,0.227,-1.062,-1.8294,-1.0587,8.856,0.8869,-0.3524,-1.731,-0.1288,8.8562,0.0834,4.089,1.704,0.8665,-0.1645,9.4692,0.1032,0.3703,-0.048232,0,1698651636.3557,45
-0.0541,0.3798,-0.3409,-0.281,0.1255,-0.9934,-1.6369,-1.0971,8.9189,0.7741,-0.5127,-1.8749,-0.1951,8.8533,0.0745,4.0383,1.6005,0.7709,-0.1947,9.4627,0.072,0.3146,-0.162407,0,1698651636.365,46
-0.0501,0.392,-0.3409,-0.2073,0.027,-1.0091,-1.466,-1.1646,8.9205,0.8124,-0.8485,-1.7242,-0.3514,8.8918,0.101,4.0424,1.5406,0.6719,-0.1943,9.5095,0.0807,0.3048,-0.267066,0,1698651636.3752,46
-0.0455,0.4289,-0.3407,-0.1407,-0.1074,-1.0546,-1.312,-1.2141,8.9771,0.7764,-1.1025,-1.4623,-0.4993,8.9239,0.1397,4.0449,1.4617,0.5422,-0.1736,9.5879,0.1414,0.2942,-0.367727,0,1698651636.387,47
-0.0397,0.4546,-0.3403,-0.0864,-0.2093,-1.0976,-1.1251,-1.3188,9.0699,0.7067,-1.166,-1.287,-0.592,8.9478,0.1727,3.9901,1.3613,0.3979,-0.177,9.6509,0.1819,0.2729,-0.463188,0,1698651636.3967,48
-0.0347,0.4325,-0.3399,-0.0565,-0.3353,-1.0943,-0.9091,-1.4068,9.138,0.6654,-1.1719,-1.2513,-0.6623,9.0161,0.2008,3.9655,1.3335,0.1436,-0.1661,9.6888,0.2168,0.2039,-0.546091,0,1698651636.4055,48
-0.0314,0.3953,-0.3398,-0.0493,-0.5261,-1.0824,-0.6928,-1.4017,9.2553,0.6839,-1.1731,-1.0916,-0.7467,9.1271,0.2322,3.9934,1.3469,-0.1255,-0.1661,9.7541,0.2338,0.1352,-0.611674,0,1698651636.4154,49
-0.0279,0.3944,-0.3395,-0.0356,-0.6418,-1.1447,-0.4967,-1.2953,9.4026,0.7688,-1.1527,-0.7459,-0.8225,9.2039,0.2318,3.995,1.3743,-0.361,-0.2275,9.8262,0.2202,0.128,-0.664914,0,1698651636.425,50
-0.0238,0.4199,-0.3388,0.0016,-0.7207,-1.1573,-0.3188,-1.1317,9.3649,0.7674,-1.1121,-0.4357,-0.8609,9.2332,0.1878,3.9503,1.3555,-0.595,-0.2871,9.8339,0.2255,0.1432,-0.708997,0,1698651636.4357,50
-0.0201,0.4138,-0.3372,0.0575,-0.7632,-1.0777,-0.115,-1.0635,9.2025,0.7267,-1.0201,-0.2757,-0.8498,9.2471,0.1837,3.9268,1.2685,-0.7691,-0.3266,9.8109,0.2344,0.154,-0.7428,0,1698651636.4457,51
-0.0171,0.362,-0.3348,0.0921,-0.8081,-0.9928,0.0962,-1.0516,9.245,0.6826,-0.9128,-0.1505,-0.802,9.2881,0.1986,3.9484,1.1149,-0.8822,-0.3325,9.8188,0.2292,0.1127,-0.768513,0,1698651636.4552,52
-0.0148,0.3116,-0.3324,0.1066,-0.9112,-0.8834,0.2695,-1.0266,9.4609,0.5681,-0.8142,0.0378,-0.7308,9.3277,0.1784,3.9649,0.9095,-0.8831,-0.2988,9.8313,0.2226,0.0685,-0.799035,0,1698651636.4653,52
-0.012,0.2982,-0.3305,0.1191,-0.9001,-0.7814,0.3999,-1.0628,9.5625,0.4944,-0.6762,0.1799,-0.6193,9.3229,0.1464,3.96,0.6681,-0.8403,-0.2496,9.7993,0.2171,0.0217,-0.837805,0,1698651636.4751,53
-0.0081,0.3244,-0.3287,0.1257,-0.7832,-0.6748,0.5012,-1.0618,9.4447,0.4818,-0.5426,0.2161,-0.4738,9.3167,0.1426,3.9408,0.3622,-0.8727,-0.1986,9.7146,0.2049,-0.0342,-0.873333,0,1698651636.4856,54
-0.0036,0.3558,-0.3263,0.1597,-0.6567,-0.5359,0.6063,-1.0121,9.2265,0.514,-0.4482,0.165,-0.3166,9.3267,0.1528,3.9108,0.0096,-0.9618,-0.1556,9.6523,0.1935,-0.0434,-0.901607,0,1698651636.4951,54
0.0004,0.352,-0.3226,0.211,-0.5473,-0.3981,0.6845,-0.9882,9.1172,0.5657,-0.3502,0.0366,-0.1501,9.3403,0.1501,3.8857,-0.3019,-1.0071,-0.1179,9.6367,0.1874,-0.0302,-0.923576,0,1698651636.5051,55
0.0037,0.3496,-0.3177,0.2573,-0.4725,-0.2945,0.7112,-0.9643,9.1472,0.6521,-0.2664,-0.0511,0.0048,9.357,0.1271,3.8633,-0.5335,-0.9852,-0.0716,9.6605,0.1729,-0.0133,-0.940639,0,1698651636.5162,56
0.0078,0.3883,-0.3126,0.269,-0.3787,-0.243,0.6961,-0.9395,9.1981,0.7382,-0.1953,-0.0835,0.1456,9.3689,0.0908,3.8424,-0.6871,-0.895,-0.016,9.688,0.1556,0.0239,-0.953892,0,1698651636.5256,56
0.0128,0.4176,-0.3087,0.2626,-0.2163,-0.1902,0.6563,-1.0032,9.2068,0.6934,-0.1341,-0.1623,0.2745,9.3546,0.0756,3.8109,-0.7731,-0.7814,0.0391,9.6843,0.1483,0.0372,-0.964187,0,1698651636.5353,57
0.0179,0.4262,-0.3058,0.2735,-0.0263,-0.1305,0.6304,-1.1138,9.1426,0.6449,-0.1139,-0.2977,0.3712,9.335,0.0783,3.7707,-0.816,-0.6216,0.0981,9.6867,0.1528,0.0538,-0.972183,0,1698651636.5462,58
0.0227,0.4259,-0.3024,0.2954,0.1554,-0.0951,0.6334,-1.1837,9.1033,0.634,-0.1237,-0.4557,0.4344,9.324,0.0826,3.7394,-0.8408,-0.4258,0.1652,9.6932,0.157,0.0942,-0.978394,0,1698651636.5571,58
0.0274,0.4241,-0.2984,0.3091,0.2735,-0.0669,0.6263,-1.2201,9.106,0.5686,-0.1791,-0.6074,0.4733,9.2954,0.0816,3.7144,-0.8226,-0.221,0.2361,9.6789,0.1464,0.137,-0.983218,0,1698651636.5679,59
0.0322,0.4302,-0.2955,0.2809,0.3491,-0.0338,0.5978,-1.2815,9.1246,0.4456,-0.2801,-0.7405,0.4864,9.2567,0.0766,3.6914,-0.7565,-0.0235,0.3031,9.6636,0.142,0.1823,-0.986965,0,1698651636.5789,60
0.0373,0.4316,-0.2945,0.2285,0.4205,-0.0414,0.5722,-1.3709,9.1925,0.352,-0.3781,-0.878,0.4753,9.2463,0.0929,3.6611,-0.6787,0.1435,0.3704,9.6739,0.1626,0.2173,-0.989875,0,1698651636.5897,60
0.0418,0.4444,-0.2944,0.1832,0.5101,-0.1282,0.5711,-1.4647,9.2763,0.2769,-0.4798,-0.9993,0.4377,9.2584,0.1182,3.6348,-0.5893,0.274,0.4432,9.7171,0.186,0.2235,-0.992136,0,1698651636.5996,61
0.0457,0.4519,-0.2944,0.1269,0.5499,-0.2408,0.5924,-1.5739,9.3571,0.1442,-0.6329,-1.0279,0.3676,9.2819,0.1403,3.6309,-0.4637,0.3269,0.5227,9.7547,0.2056,0.2062,-0.993892,0,1698651636.6095,62
0.0495,0.4484,-0.2945,0.082,0.5288,-0.3692,0.6167,-1.6613,9.3253,0.0216,-0.6087,-1.0263,0.2885,9.2745,0.1609,3.5946,-0.3243,0.2734,0.599,9.727,0.2101,0.1546,-0.995255,0,1698651636.6199,62
0.0541,0.4542,-0.2945,0.0659,0.6985,-0.7385,0.6899,-1.8059,9.1671,-0.1222,-0.8621,-1.1906,0.1574,9.1655,0.2677,3.4367,-0.1242,-0.0312,0.692,9.6302,0.234,-0.0049,-0.996315,0,1698651636.6313,63
0.0592,0.4484,-0.2946,0.0475,0.8479,-0.9688,0.7588,-1.8662,9.2242,-0.2251,-1.1498,-1.2574,0.0656,9.2044,0.316,3.4675,-0.1186,-0.1914,0.7662,9.6917,0.2613,-0.0567,-0.997138,0,1698651636.6424,64
0.0642,0.4428,-0.2945,0.0333,0.9349,-1.2107,0.8056,-1.9592,9.3164,-0.2658,-1.3911,-1.2778,-0.0237,9.3084,0.3562,3.5443,-0.1756,-0.3482,0.8512,9.8211,0.2758,-0.0489,-0.997777,0,1698651636.6534,64
0.0695,0.4624,-0.2945,0.026,0.9489,-1.4327,0.7856,-1.9614,9.4468,-0.2532,-1.5427,-1.3482,-0.082,9.4354,0.3588,3.5978,-0.2462,-0.6379,0.9129,9.9862,0.254,-0.0393,-0.998273,0,1698651636.6645,65
0.0753,0.469,-0.2939,0.0466,0.9691,-1.6418,0.7343,-1.8691,9.5983,-0.2109,-1.6298,-1.4762,-0.1204,9.6107,0.3079,3.6148,0.0304,-1.5021,1.064,10.1083,0.0948,0.1346,-0.998659,0,1698651636.6745,66
0.08,0.4461,-0.2927,0.084,1.0564,-1.84,0.6962,-1.7736,9.8994,-0.1138,-1.6906,-1.55,-0.163,9.8586,0.2192,3.6403,0.2776,-2.3173,1.2231,10.2818,-0.0227,0.2575,-0.998958,0,1698651636.6864,66
0.0837,0.4117,-0.2905,0.1293,1.1352,-2.0357,0.618,-1.6093,10.1688,0.1032,-1.922,-1.5451,-0.18,10.1306,0.0872,3.7063,0.1739,-2.6906,1.3143,10.5779,-0.0546,0.1642,-0.999191,0,1698651636.6974,67
0.0872,0.3693,-0.2871,0.1876,1.0976,-2.1766,0.4814,-1.2789,10.2516,0.3811,-2.0991,-1.4842,-0.1803,10.3506,-0.0589,3.807,0.0448,-2.9056,1.3331,10.813,-0.1569,0.1278,-0.999371,0,1698651636.7078,68
0.0901,0.3367,-0.2825,0.255,1.0846,-2.2026,0.3583,-0.9431,10.406,0.6394,-1.9861,-1.4472,-0.155,10.5282,-0.2376,3.9019,0.0076,-3.0257,1.2378,10.962,-0.3163,0.1952,-0.999512,0,1698651636.7182,68
0.0917,0.3019,-0.2771,0.3258,1.2058,-2.123,0.2507,-0.6529,10.6705,0.8967,-1.8148,-1.5513,-0.0383,10.7456,-0.4683,4.0089,-0.0316,-3.015,1.1289,11.1356,-0.5016,0.2671,-0.999621,0,1698651636.7286,69
0.0921,0.2487,-0.2731,0.3355,1.3067,-1.9343,0.1262,-0.3262,11.0593,1.1207,-1.6511,-1.6391,0.1343,11.0125,-0.6745,4.1741,-0.1949,-2.6113,1.0792,11.3627,-0.6399,0.2703,-0.999705,0,1698651636.7385,70
0.092,0.1899,-0.2715,0.2749,1.3578,-1.63,-0.0352,-0.0598,11.4105,1.2925,-1.4473,-1.6169,0.3347,11.2444,-0.8785,4.3193,-0.3201,-1.9517,1.1071,11.5426,-0.8026,0.2981,-0.999771,0,1698651636.7488,70
0.0919,0.1268,-0.2714,0.2212,1.3063,-1.288,-0.2322,0.1786,11.5772,1.4673,-1.1569,-1.6184,0.585,11.4162,-1.0733,4.3992,-0.3329,-1.1616,1.1747,11.6382,-0.9702,0.3462,-0.999795,0,1698651636.7585,71
0.0917,0.0806,-0.2715,0.1844,1.2271,-0.9542,-0.4031,0.3357,11.6773,1.6061,-0.7856,-1.7329,0.88,11.4679,-1.2056,4.4369,-0.2653,-0.3817,1.2392,11.6412,-1.0685,0.394,-0.999784,0,1698651636.7687,72
0.0913,0.0366,-0.2714,0.1439,1.2022,-0.6029,-0.5145,0.3489,11.6529,1.6289,-0.4341,-1.8857,1.1543,11.3853,-1.2445,4.4672,-0.1916,0.2019,1.3038,11.5595,-1.0858,0.4405,-0.99978,0,1698651636.7791,72
0.0902,-0.0196,-0.2711,0.1205,1.3942,-0.1987,-0.486,0.3256,11.2803,1.5763,-0.1901,-2.0667,1.3793,11.1654,-1.1793,4.4422,-0.0482,0.5657,1.3403,11.3902,-1.0335,0.5247,-0.998636,0,1698651636.7893,73
0.0878,-0.1092,-0.27,0.15,1.759,0.2149,-0.325,0.2192,10.5625,1.5386,-0.0023,-2.3436,1.5753,10.846,-1.0445,4.3783,0.0172,0.792,1.3568,11.1751,-0.9007,0.5583,-0.992672,0,1698651636.7997,74
0.0829,-0.2345,-0.2666,0.2228,1.8787,0.4892,-0.1368,0.023,9.8475,1.6163,0.0968,-2.5194,1.6765,10.5965,-0.8521,4.3611,0.0407,0.9568,1.3678,11.0339,-0.6594,0.5542,-0.951454,0,1698651636.8103,74
0.075,-0.3401,-0.2602,0.3157,1.7944,0.5967,0.0681,-0.2938,9.6635,1.6055,0.0561,-2.4592,1.6477,10.3817,-0.6254,4.3731,0.1007,0.9935,1.3952,10.9253,-0.3722,0.571,-0.823361,0,1698651636.8207,75
0.0652,-0.4347,-0.2522,0.4314,1.5456,0.5984,0.4143,-0.951,9.8195,1.302,-0.4319,-1.7087,1.3555,9.8145,-0.266,4.3597,0.041,0.8629,1.3222,10.4834,-0.0586,0.5624,-0.597302,0,1698651636.8317,76
0.0546,-0.5658,-0.2441,0.5325,1.5391,0.4693,0.5789,-1.2251,9.7496,1.2895,-0.767,-1.2824,1.164,9.4933,-0.1477,4.3014,-0.0712,0.8133,1.2251,10.2371,-0.0171,0.593,-0.316503,0,1698651636.842,77
0.043,-0.6974,-0.2359,0.6056,1.5494,0.3076,0.7356,-1.4559,9.6566,1.3463,-1.0154,-0.964,0.9735,9.2057,-0.0879,4.2658,-0.397,0.8403,1.1216,10.0237,0.0251,0.6391,-0.061115,0,1698651636.853,77
0.0301,-0.8382,-0.227,0.6852,1.4687,0.1403,0.8549,-1.5096,9.3911,1.4993,-1.2517,-0.6392,0.7923,8.9886,-0.0923,4.2609,-0.7745,0.938,1.0394,9.8252,-0.0012,0.7217,-0.068192,0,1698651636.864,78
0.0154,-0.9565,-0.2174,0.7747,1.349,-0.0749,0.9185,-1.3973,9.0986,1.6753,-1.4421,-0.3511,0.6209,8.7864,-0.1435,4.2843,-1.0966,1.0327,0.9722,9.6153,-0.0775,0.819,-0.27529,0,1698651636.8752,79
-0.0007,-1.0228,-0.2074,0.8388,1.2424,-0.357,0.9457,-1.2847,9.0555,1.7371,-1.6284,-0.1341,0.463,8.6237,-0.2279,4.3372,-1.4141,1.1019,0.8944,9.4572,-0.1811,0.9206,-0.437095,0,1698651636.8874,79
-0.0193,-1.1501,-0.1972,0.8772,1.1971,-0.6699,0.9039,-1.2013,9.1327,1.8234,-1.7432,-0.0687,0.3498,8.5414,-0.3726,4.377,-1.6651,1.1838,0.8349,9.3639,-0.3412,1.0499,-0.562775,0,1698651636.898,80
-0.0383,-1.2696,-0.1876,0.8745,1.0928,-0.9428,0.7861,-1.044,9.2683,1.8367,-1.8,0.1389,0.2686,8.5544,-0.5577,4.4085,-1.6631,1.2696,0.8568,9.35,-0.5372,1.198,-0.660394,0,1698651636.9081,81
-0.0557,-1.3758,-0.1796,0.8164,0.936,-1.1692,0.5966,-0.8448,9.3373,1.7786,-1.7999,0.2056,0.2278,8.5897,-0.7495,4.4273,-1.5508,1.4282,0.9036,9.3439,-0.6962,1.368,-0.736218,0,1698651636.9182,81
-0.0727,-1.4791,-0.1733,0.7454,0.7716,-1.3809,0.354,-0.6279,9.4732,1.7399,-1.7443,-0.0213,0.2165,8.6863,-0.9376,4.4536,-1.392,1.5293,0.9511,9.3777,-0.8546,1.5287,-0.795113,0,1698651636.9284,82
-0.0895,-1.4936,-0.1675,0.7112,0.5749,-1.5845,0.0906,-0.4396,9.6229,1.6988,-1.6773,-0.218,0.2213,8.8504,-1.0925,4.4583,-1.1604,1.4919,0.9837,9.4919,-1.0191,1.669,-0.840858,0,1698651636.939,83
-0.1064,-1.5072,-0.1612,0.7018,0.4494,-1.7614,-0.1251,-0.2904,9.7594,1.6333,-1.5767,-0.4628,0.2447,9.0147,-1.2219,4.4096,-0.9992,1.3308,0.9434,9.6244,-1.122,1.7505,-0.876389,0,1698651636.9492,83
-0.1231,-1.5697,-0.1549,0.6844,0.3689,-1.8818,-0.2696,-0.1336,9.8941,1.6249,-1.4926,-0.6973,0.2612,9.1768,-1.3542,4.3536,-0.9252,1.0778,0.8533,9.7667,-1.2044,1.7926,-0.903987,0,1698651636.9599,84
-0.14,-1.5684,-0.1487,0.6587,0.2817,-1.9582,-0.3495,-0.0207,9.942,1.7378,-1.4443,-0.8564,0.2774,9.3332,-1.4812,4.2964,-0.9027,0.8541,0.7442,9.929,-1.2686,1.8452,-0.925424,0,1698651636.9701,85
-0.1557,-1.5399,-0.142,0.6307,0.2054,-1.9733,-0.3382,0.0537,9.9135,1.8472,-1.3983,-0.9655,0.301,9.4824,-1.5695,4.2537,-0.834,0.7075,0.6491,10.054,-1.3113,1.8731,-0.942074,0,1698651636.9804,85
-0.1698,-1.5351,-0.1356,0.6166,0.0493,-1.7784,-0.1045,0.1636,10.1265,1.6595,-1.3249,-1.2631,0.3496,9.6821,-1.6307,4.1826,-0.8078,0.5887,0.4786,10.2109,-1.3254,1.7876,-0.955007,0,1698651636.9928,86
-0.1843,-1.4879,-0.1287,0.6286,0.0888,-1.6308,0.1136,0.1589,10.1244,1.5982,-1.3567,-1.4254,0.3886,9.696,-1.6001,4.1158,-0.8745,0.556,0.3883,10.1679,-1.2923,1.6405,-0.965052,0,1698651637.0039,87
-0.1983,-1.4127,-0.1216,0.6409,0.1775,-1.4599,0.3743,0.1721,10.0153,1.5728,-1.4367,-1.5728,0.4343,9.6816,-1.5552,4.0524,-0.9758,0.4819,0.2722,10.1075,-1.2711,1.4779,-0.972854,0,1698651637.0149,87
-0.2105,-1.3231,-0.1151,0.645,0.254,-1.2743,0.6372,0.1831,9.8994,1.5407,-1.5739,-1.6617,0.4621,9.6448,-1.5284,3.9855,-1.1081,0.4645,0.1445,10.0275,-1.2646,1.323,-0.978915,0,1698651637.0273,88
-0.2223,-1.2482,-0.1079,0.6538,0.3654,-1.0842,0.8943,0.1823,9.7641,1.5302,-1.7103,-1.6583,0.4411,9.6363,-1.5126,3.8713,-1.291,0.5882,0.018,9.8782,-1.2275,1.1746,-0.983623,0,1698651637.0382,89
-0.2331,-1.1805,-0.1002,0.6676,0.5202,-0.9015,1.1187,0.1961,9.666,1.4844,-1.8571,-1.4707,0.3788,9.5602,-1.4878,3.7933,-1.5592,0.7285,-0.1109,9.7222,-1.2176,1.0246,-0.987279,0,1698651637.0485,89
-0.2417,-1.0928,-0.0929,0.6851,0.6497,-0.6923,1.3007,0.2181,9.6085,1.3868,-1.9916,-1.06,0.3167,9.4257,-1.4618,3.7415,-2.0086,0.8333,-0.2562,9.6549,-1.2473,0.9182,-0.990119,0,1698651637.0582,90
-0.2489,-1.0146,-0.0854,0.7171,0.7546,-0.4659,1.4488,0.2402,9.5465,1.2881,-2.0484,-0.6217,0.2856,9.3464,-1.4513,3.643,-2.691,1.051,-0.4466,9.6241,-1.2659,0.8966,-0.992325,0,1698651637.0687,91
-0.2557,-0.9363,-0.0773,0.7703,0.8199,-0.2475,1.5554,0.2938,9.6458,1.1536,-2.0379,-0.2012,0.269,9.2866,-1.4549,3.5443,-3.5235,1.3394,-0.6541,9.6135,-1.2533,0.8482,-0.994039,0,1698651637.0791,91
-0.2621,-0.8656,-0.0692,0.7907,0.7658,-0.0599,1.6058,0.3209,9.8029,0.988,-1.9914,0.307,0.234,9.2442,-1.4977,3.4458,-4.8118,2.7889,-0.9968,9.5631,-1.2254,1.0782,-0.99537,0,1698651637.0894,92
-0.2681,-0.8107,-0.0613,0.7636,0.7118,0.0687,1.6406,0.2867,9.8568,0.8636,-1.9153,0.8662,0.1779,9.1704,-1.5738,3.3446,-5.4008,3.4128,-1.1863,9.4306,-1.2079,1.1774,-0.996404,0,1698651637.0997,93
-0.274,-0.7544,-0.054,0.7403,0.5941,0.1755,1.6311,0.3037,9.924,0.7637,-1.851,1.517,0.0959,9.113,-1.6553,3.2837,-5.0505,2.4427,-1.0361,9.3491,-1.2323,1.0623,-0.997207,0,1698651637.1091,93
-0.2792,-0.697,-0.047,0.7403,0.3756,0.2661,1.5717,0.3398,9.9439,0.7351,-1.8037,2.1528,0.005,9.0778,-1.7486,3.2182,-4.6378,1.9867,-0.9194,9.3197,-1.3101,1.144,-0.99783,0,1698651637.1192,94
-0.2841,-0.6589,-0.0404,0.7258,0.194,0.3364,1.5076,0.3669,9.9246,0.7126,-1.7175,2.5615,-0.0665,9.0291,-1.8368,3.1395,-4.0241,1.9818,-0.8825,9.3295,-1.3767,1.1898,-0.998315,0,1698651637.1298,95
-0.2893,-0.641,-0.0339,0.6974,-0.0621,0.4149,1.4161,0.4237,9.9432,0.6409,-1.6351,2.7503,-0.1195,8.9857,-1.8783,3.0824,-3.4835,2.1468,-0.8078,9.3385,-1.423,1.1762,-0.998691,0,1698651637.1404,95
-0.2946,-0.606,-0.0269,0.6615,-0.6239,0.5749,1.1567,0.5508,9.7554,0.6502,-1.4942,2.562,-0.1796,8.8663,-1.8915,2.9801,-2.5658,2.4111,-0.6467,9.2148,-1.5104,1.1375,-0.998983,0,1698651637.1523,96
-0.2988,-0.5394,-0.0207,0.625,-0.8669,0.6555,0.9851,0.6275,9.7606,0.6525,-1.4089,2.3501,-0.1826,8.8391,-1.9307,2.9642,-2.1318,2.6396,-0.6187,9.1764,-1.5498,1.1479,-0.999209,0,1698651637.1632,97
-0.3016,-0.4595,-0.0154,0.5921,-1.1205,0.7437,0.787,0.6689,9.6563,0.6367,-1.2881,2.1549,-0.1772,8.8662,-2.0015,2.9754,-1.712,2.8094,-0.5901,9.1623,-1.6179,1.1805,-0.999383,0,1698651637.1741,97
-0.3032,-0.3842,-0.0099,0.567,-1.2663,0.7901,0.5956,0.6307,9.544,0.6159,-1.1304,1.9956,-0.1518,8.8818,-2.069,2.995,-1.3314,3.0751,-0.5875,9.1739,-1.6927,1.2147,-0.999514,0,1698651637.1852,98
-0.3042,-0.3063,-0.0048,0.5497,-1.36,0.7844,0.3907,0.5896,9.4857,0.6374,-0.9082,1.94,-0.1235,8.9006,-2.1063,3.048,-0.9719,3.4144,-0.5854,9.1884,-1.7615,1.2551,-0.999597,0,1698651637.1974,99
-0.3045,-0.2371,-0.0001,0.5132,-1.4813,0.7586,0.1915,0.498,9.5166,0.6447,-0.7109,2.0502,-0.0768,8.9474,-2.167,3.107,-0.5878,3.7452,-0.5558,9.2043,-1.8508,1.3146,-0.999547,0,1698651637.2076,99
-0.3045,-0.1841,0.0048,0.4788,-1.596,0.7258,0.0113,0.3037,9.5154,0.6231,-0.5576,2.2134,0.0012,8.981,-2.2623,3.1499,-0.2222,3.9519,-0.5046,9.219,-1.9203,1.3552,-0.999249,0,1698651637.2174,0
-0.3045,-0.143,0.0097,0.4588,-1.6621,0.6637,-0.1748,0.1555,9.3945,0.5797,-0.3559,2.3997,0.0763,9.0223,-2.312,3.1795,0.0559,3.971,-0.4392,9.2388,-1.9426,1.3784,-0.998863,0,1698651637.2273,1
-0.3045,-0.099,0.0141,0.4625,-1.6657,0.5618,-0.3525,0.0382,9.3985,0.5344,-0.0927,2.3613,0.144,9.0306,-2.2931,3.1942,0.2727,4.0148,-0.4004,9.2821,-1.9289,1.4403,-0.998354,0,1698651637.2382,1
-0.3044,-0.0666,0.018,0.4723,-1.683,0.4391,-0.5383,-0.1147,9.4881,0.519,0.1296,1.9923,0.194,9.0133,-2.237,3.2142,0.4982,4.0506,-0.4018,9.3434,-1.8586,1.5049,-0.997358,0,1698651637.2481,2
-0.3044,-0.0515,0.022,0.4639,-1.7015,0.3132,-0.7056,-0.1917,9.403,0.5247,0.2427,1.5889,0.1868,9.0159,-2.1231,3.2152,0.658,3.7903,-0.4106,9.4425,-1.7658,1.5113,-0.995949,0,1698651637.2582,3
-0.3044,-0.027,0.0261,0.4594,-1.7005,0.2213,-0.804,-0.2184,9.3278,0.488,0.2827,1.2372,0.1267,9.0155,-2.0259,3.2011,0.6944,3.2566,-0.4463,9.5257,-1.6854,1.5048,-0.994374,0,1698651637.2681,4
-0.3044,-0.0053,0.0303,0.4456,-1.6274,0.1432,-0.8583,-0.2699,9.3418,0.4464,0.2048,0.9078,0.0357,8.9788,-1.9979,3.1987,0.6587,2.6086,-0.5329,9.5507,-1.6241,1.5023,-0.992325,0,1698651637.2785,4
-0.3043,-0.0014,0.0339,0.418,-1.5663,0.0884,-0.8945,-0.2401,9.3484,0.4234,0.117,0.5761,-0.0852,8.9808,-1.985,3.2273,0.5901,1.9706,-0.6351,9.5827,-1.5978,1.5053,-0.989087,0,1698651637.2892,5
-0.3043,-0.0057,0.0371,0.4021,-1.5325,0.0698,-0.9175,-0.105,9.3909,0.3916,0.0914,0.327,-0.2243,9.078,-1.9718,3.2797,0.5513,1.4103,-0.7239,9.6295,-1.6079,1.5118,-0.982419,0,1698651637.2996,6
-0.3042,0.0076,0.0403,0.3898,-1.4167,0.0502,-0.9329,0.0748,9.3181,0.3793,0.0817,0.1659,-0.3503,9.18,-1.9816,3.319,0.5399,0.9027,-0.7971,9.642,-1.6312,1.4883,-0.968038,0,1698651637.3102,7
-0.3041,0.0299,0.0436,0.3698,-1.2953,0.0613,-0.9286,0.2623,9.1977,0.3617,0.0793,0.0135,-0.4396,9.2082,-2.0271,3.3277,0.4969,0.4087,-0.8675,9.6346,-1.6645,1.4578,-0.935004,0,1698651637.3205,7
-0.3036,0.0357,0.0468,0.3389,-1.1856,0.1033,-0.8801,0.3874,9.2068,0.367,0.0664,-0.1023,-0.4919,9.2151,-2.0673,3.3267,0.4108,-0.0705,-0.9385,9.6402,-1.707,1.4472,-0.876446,0,1698651637.3305,8
-0.3024,0.0608,0.0496,0.309,-1.0447,0.2172,-0.8091,0.6892,9.1301,0.577,0.1278,-0.1066,-0.4983,9.3206,-2.1017,3.4105,0.3514,-0.8867,-1.021,9.7698,-1.7977,1.4497,-0.842005,0,1698651637.343,9
-0.2998,0.1085,0.0515,0.2695,-1.1111,0.3274,-0.835,0.8069,9.3639,0.4987,0.2276,0.0404,-0.4608,9.4109,-2.1525,3.4025,0.3838,-1.1534,-1.0211,9.8408,-1.8198,1.4184,-0.855124,0,1698651637.3549,10
-0.2962,0.1286,0.0525,0.2056,-1.1329,0.4523,-0.8738,0.9218,9.6555,0.4501,0.4295,0.1683,-0.4266,9.4987,-2.1094,3.3059,0.4669,-1.2675,-1.0092,9.8586,-1.8236,1.3217,-0.873523,0,1698651637.3665,10
-0.2935,0.1104,0.0532,0.1521,-1.1345,0.5867,-0.8708,1.0127,9.8738,0.5001,0.7151,0.3792,-0.4332,9.5859,-2.0387,3.3643,0.5425,-1.392,-0.9863,9.9047,-1.8164,1.2597,-0.876788,0,1698651637.3771,11
-0.2928,0.0784,0.0539,0.1329,-1.1417,0.7491,-0.8096,1.0464,9.9613,0.5314,0.8107,0.7748,-0.4009,9.6982,-2.0579,3.4593,0.6217,-1.1683,-0.9438,9.9742,-1.8015,1.2452,-0.872145,0,1698651637.3876,12
-0.2929,0.0426,0.0546,0.1167,-1.0834,0.9306,-0.7144,0.9931,9.9213,0.4542,0.7887,1.2372,-0.323,9.7189,-2.0089,3.4642,0.6789,-0.5744,-0.8937,9.9921,-1.7655,1.1989,-0.880074,0,1698651637.3973,13
-0.2929,0.0195,0.055,0.1068,-0.9716,1.133,-0.6191,0.8839,9.8372,0.2918,0.816,1.4805,-0.2761,9.6471,-1.9446,3.4303,0.6237,-0.1285,-0.8489,9.9712,-1.7029,1.18,-0.855059,0,1698651637.4071,13
-0.293,0.016,0.0554,0.1072,-0.8643,1.3532,-0.5085,0.798,9.8268,0.1141,0.8371,1.4624,-0.2567,9.5908,-1.9559,3.3989,0.4998,0.2281,-0.8183,9.9935,-1.6614,1.2306,-0.697054,0,1698651637.4173,14
-0.293,0.0133,0.0567,0.12,-0.7606,1.5728,-0.3816,0.6669,9.847,-0.0285,0.926,1.2548,-0.2493,9.5876,-1.95,3.3945,0.4224,0.0986,-0.7912,10.0715,-1.6399,1.3255,-0.510951,0,1698651637.428,15
-0.293,0.0122,0.0597,0.1883,-0.6212,1.7613,-0.2337,0.5148,9.8389,-0.1226,1.0555,0.8508,-0.2521,9.6376,-1.9202,3.3981,0.4116,-0.6922,-0.765,10.1826,-1.5943,1.4099,-0.288888,0,1698651637.4388,16
-0.2925,0.0378,0.0641,0.2523,-0.2998,1.9009,-0.0259,0.429,10.0074,-0.1728,1.1706,0.0819,-0.2764,9.7809,-1.8715,3.3955,0.5371,-1.4335,-0.7378,10.3486,-1.6193,1.503,-0.004826,0,1698651637.4493,16
-0.2905,0.0975,0.0677,0.2583,0.0401,2.0485,0.1679,0.43,10.2548,-0.2,1.1799,-0.5665,-0.2927,9.9328,-1.8916,3.4085,0.6183,-1.9521,-0.6997,10.4355,-1.6634,1.5443,0.208224,0,1698651637.4591,17
-0.2863,0.1919,0.0691,0.2168,0.2035,2.2194,0.2707,0.4406,10.4529,-0.196,1.1266,-0.9465,-0.3148,10.0262,-1.9551,3.5297,0.5698,-2.2459,-0.6564,10.5113,-1.6385,1.5726,0.372718,0,1698651637.4691,18
-0.2798,0.3224,0.0692,0.1604,0.1396,2.3249,0.285,0.3556,10.6703,-0.0285,1.1526,-1.6849,-0.4452,10.1758,-1.9726,3.722,0.6139,-2.2482,-0.5972,10.7099,-1.6199,1.6563,0.508998,0,1698651637.4799,19
-0.271,0.4318,0.0689,0.1178,-0.0413,2.3412,0.2406,0.2067,10.7737,0.2849,1.3568,-3.1693,-0.8525,10.3873,-1.9726,3.9588,0.753,-2.2995,-0.5274,10.8985,-1.6162,1.7008,0.59881,0,1698651637.4902,19
-0.2609,0.5542,0.0686,0.0791,-0.0923,2.3599,0.2343,-0.0471,10.7854,0.487,1.4378,-4.4109,-1.2967,10.6767,-2.0161,4.0611,0.8099,-2.5941,-0.4493,11.0681,-1.584,1.7025,0.56336,0,1698651637.5004,20
-0.2509,0.6663,0.0684,0.0623,0.0002,2.3292,0.2831,-0.2699,10.8254,0.712,1.3764,-4.7311,-1.3289,10.9096,-2.0494,3.9624,0.7229,-2.6031,-0.4108,11.2467,-1.4755,1.7628,0.408875,0,1698651637.5106,21
-0.2414,0.6855,0.0676,0.0214,0.0926,2.2124,0.4717,-0.8329,10.7705,1.3563,1.4283,-5.0167,-0.9839,10.8477,-1.6881,4.0385,0.4296,-1.9105,-0.5601,11.4774,-1.038,1.9088,0.223234,0,1698651637.5222,21
-0.2326,0.6764,0.0647,-0.0755,0.0602,2.1533,0.5697,-1.0708,10.5124,1.7131,1.2233,-5.0457,-1.0587,10.8577,-1.4547,4.0437,0.0645,-2.0499,-0.7074,11.4788,-0.8125,1.9613,0.211456,0,1698651637.5337,22
-0.2255,0.6373,0.0576,-0.2426,0.1408,1.9284,0.5803,-1.2559,10.708,1.9549,0.9975,-4.7333,-1.2301,10.8919,-1.2861,3.9988,-0.3615,-2.3619,-0.8541,11.4759,-0.639,2.0481,0.352591,0,1698651637.5451,23
-0.2204,0.567,0.0462,-0.4638,0.1642,1.6804,0.5731,-1.3986,10.9398,2.1078,0.8818,-3.9776,-1.3838,10.8532,-1.1497,3.9952,-0.7111,-2.5242,-0.9928,11.4752,-0.466,2.139,0.257917,0,1698651637.5557,24
-0.2175,0.4892,0.0323,-0.6468,0.1585,1.5458,0.611,-1.3148,10.7765,2.1963,0.9139,-3.0814,-1.5321,10.7211,-1.0134,4.0229,-1.0815,-2.5308,-1.133,11.3533,-0.3131,2.1775,-0.016766,0,1698651637.5659,24
-0.2164,0.4057,0.0171,-0.7951,0.0671,1.5605,0.6899,-0.9189,10.373,2.1859,1.0299,-2.0307,-1.66,10.4934,-0.8617,4.0695,-1.3734,-2.577,-1.246,11.0371,-0.2214,2.1302,-0.236283,0,1698651637.5764,25
-0.2156,0.3393,0.0008,-0.9426,-0.1087,1.589,0.7724,-0.4949,10.2236,2.199,1.1729,-0.8567,-1.7705,10.2051,-0.7504,4.0873,-1.6283,-2.8198,-1.3007,10.6138,-0.1929,1.9791,-0.406796,0,1698651637.5854,26
-0.214,0.3073,-0.0159,-1.1195,-0.2665,1.6111,0.7854,-0.2021,10.214,2.1762,1.3649,0.2606,-1.8384,9.8766,-0.7213,4.0618,-1.5578,-2.7827,-1.3618,10.1697,-0.2211,1.8774,-0.53923,0,1698651637.5951,27
-0.2104,0.326,-0.0333,-1.2989,-0.4522,1.6965,0.7478,0.0071,9.9537,2.1073,1.6163,1.1616,-1.8332,9.506,-0.6676,4.0538,-0.9535,-2.3362,-1.4511,9.7257,-0.2269,1.8915,-0.419456,0,1698651637.6051,27
-0.2047,0.401,-0.0519,-1.4575,-0.5972,1.8156,0.7152,0.1675,9.5022,2.1587,1.9556,1.7107,-1.7091,9.1228,-0.5997,4.0582,-0.3707,-1.9912,-1.5255,9.2782,-0.198,1.8912,-0.103253,0,1698651637.6153,28
-0.197,0.5026,-0.0705,-1.6059,-0.6409,1.9601,0.6711,0.3306,9.1212,2.1741,2.2251,1.9718,-1.4924,8.7609,-0.5545,4.0969,-0.0126,-2.076,-1.5689,8.8795,-0.1793,1.8576,0.14296,0,1698651637.6251,29
-0.1883,0.5885,-0.0891,-1.7397,-0.5435,2.138,0.6258,0.3872,8.9844,2.0851,2.4429,1.9394,-1.1836,8.4842,-0.5701,4.1546,0.0491,-2.5458,-1.5471,8.6305,-0.2126,1.8365,0.334286,0,1698651637.6354,30
-0.1793,0.6498,-0.1072,-1.8436,-0.4441,2.3222,0.5565,0.4224,9.0082,2.0014,2.7127,1.6356,-0.8261,8.4087,-0.5836,4.229,0.1038,-2.8706,-1.4016,8.5697,-0.2695,1.833,0.482913,0,1698651637.6453,30
-0.1705,0.6814,-0.125,-1.8839,-0.3975,2.4916,0.4609,0.4064,9.0522,1.9726,3.0475,1.1661,-0.4938,8.5032,-0.5449,4.3039,0.4556,-2.8434,-1.124,8.6713,-0.2738,1.7889,0.598361,0,1698651637.6554,31
-0.1619,0.6982,-0.1434,-1.888,-0.334,2.6369,0.3185,0.2878,9.0852,1.9825,3.4277,0.6251,-0.2026,8.7135,-0.4686,4.3501,1.149,-2.4482,-0.8352,8.9157,-0.2147,1.7318,0.688035,0,1698651637.6659,32
-0.1532,0.7265,-0.1619,-1.8891,-0.2856,2.7318,0.1064,0.0731,9.1459,1.9856,3.6872,0.169,0.0135,8.9672,-0.3227,4.3913,1.9637,-1.8907,-0.5844,9.2175,-0.0835,1.6592,0.757687,0,1698651637.6759,33
-0.1449,0.7693,-0.1795,-1.8868,-0.3792,2.7851,-0.1435,-0.2113,9.2836,1.9416,3.8283,-0.1494,0.16,9.2174,-0.1343,4.4005,2.7806,-1.3161,-0.3751,9.515,0.0962,1.5817,0.811789,0,1698651637.6858,33
-0.1369,0.7763,-0.1965,-1.8262,-0.5721,2.7711,-0.4023,-0.5121,9.5823,1.8275,3.8782,-0.3073,0.2413,9.4692,0.0633,4.4088,3.6085,-0.8443,-0.2288,9.8009,0.2898,1.4998,0.85381,0,1698651637.6962,34
-0.1291,0.7553,-0.2126,-1.7425,-0.6665,2.6495,-0.6375,-0.9716,9.9401,1.6813,3.7798,-0.3199,0.2509,9.6456,0.2401,4.4147,4.2277,-0.5818,-0.1228,10.0582,0.4613,1.3863,0.886424,0,1698651637.7064,35
-0.1215,0.7348,-0.2275,-1.6973,-0.6342,2.4493,-0.8423,-1.4442,10.09,1.5379,3.5491,-0.2062,0.2063,9.7328,0.3571,4.3653,4.5792,-0.366,-0.0643,10.2538,0.5781,1.2401,0.91143,0,1698651637.716,36
-0.1147,0.7207,-0.2412,-1.64,-0.4983,2.2001,-1.0082,-1.7694,10.071,1.5038,3.2165,0.0849,0.1069,9.7463,0.4391,4.2815,4.6885,-0.0424,-0.0734,10.3426,0.6657,1.0779,0.929764,0,1698651637.7259,36
-0.1087,0.711,-0.2541,-1.5882,-0.3501,1.8991,-1.166,-1.9816,9.9455,1.5702,2.7546,0.4449,-0.0436,9.7242,0.4911,4.1888,4.5553,0.0802,-0.1359,10.3638,0.7316,0.9286,0.94267,0,1698651637.7357,37
-0.1028,0.6786,-0.2664,-1.5453,-0.2657,1.5716,-1.3466,-2.0935,9.7452,1.5682,2.2364,0.7168,-0.1971,9.6574,0.5122,4.0838,4.2277,-0.1586,-0.2458,10.3364,0.7432,0.7819,0.935456,0,1698651637.7455,38
-0.0974,0.6238,-0.2776,-1.4882,-0.1567,1.2014,-1.5158,-2.19,9.5465,1.5513,1.7998,1.0004,-0.3317,9.5867,0.5257,3.9674,3.7423,-0.4131,-0.3933,10.2363,0.7113,0.6504,0.902682,0,1698651637.7556,39
-0.0929,0.5726,-0.2881,-1.4157,-0.0516,0.7987,-1.6668,-2.2396,9.3414,1.5807,1.5416,1.2548,-0.4098,9.4888,0.5522,3.8388,3.1983,-0.5698,-0.5557,10.1109,0.6631,0.5538,0.790858,0,1698651637.7653,39
-0.0892,0.5263,-0.2984,-1.3366,0.0105,0.4178,-1.8046,-2.1897,9.2201,1.5399,1.4647,1.4217,-0.4321,9.3563,0.5514,3.7424,2.6743,-0.6098,-0.7048,9.9748,0.6178,0.485,0.577033,0,1698651637.7754,40
-0.0858,0.4742,-0.3081,-1.2579,0.1354,0.0359,-1.915,-2.1725,9.1764,1.4366,1.4935,1.5394,-0.4606,9.262,0.5206,3.6939,2.1965,-0.6033,-0.8308,9.8386,0.5714,0.4523,0.371464,0,1698651637.7859,41
-0.0822,0.4487,-0.3175,-1.1563,0.2196,-0.2923,-2.0255,-2.1581,9.1125,1.2896,1.5952,1.5396,-0.5218,9.1874,0.4758,3.6467,1.7922,-0.6162,-0.9355,9.7235,0.5146,0.4521,0.229113,0,1698651637.7956,41
-0.0785,0.4373,-0.3253,-1.0396,0.245,-0.5839,-2.1309,-2.0617,9.0548,1.1874,1.7227,1.412,-0.6027,9.1217,0.4279,3.5798,1.4492,-0.662,-1.0117,9.6137,0.4795,0.4455,0.147608,0,1698651637.8053,42
-0.0753,0.4155,-0.3317,-0.9405,0.4215,-0.9126,-2.1855,-1.943,9.0325,1.181,1.7246,1.1782,-0.6987,9.0744,0.3827,3.5233,1.1615,-0.7479,-1.0454,9.4959,0.4541,0.4054,0.107686,0,1698651637.8154,43
-0.0725,0.4102,-0.3377,-0.8538,0.5748,-1.185,-2.1887,-1.782,9.0173,1.1209,1.5975,0.9191,-0.8321,9.0826,0.346,3.5283,1.0198,-0.7992,-1.0587,9.4356,0.4328,0.3905,0.011388,0,1698651637.8252,44
-0.0694,0.4049,-0.3425,-0.7647,0.67,-1.3693,-2.1682,-1.6824,8.9715,1,1.3785,0.6667,-0.9757,9.1034,0.342,3.556,1.0922,-0.7581,-1.0665,9.3966,0.4229,0.3937,-0.149403,0,1698651637.8362,44
-0.0654,0.3963,-0.3469,-0.6954,0.7431,-1.4937,-2.1497,-1.6032,8.8855,0.8681,1.0031,0.3565,-1.0737,9.1091,0.3179,3.5834,1.208,-0.7228,-1.0351,9.3245,0.4078,0.3247,-0.301472,0,1698651637.8458,45
-0.0605,0.4005,-0.3512,-0.6412,0.5979,-1.5818,-2.1464,-1.4326,8.8357,0.7299,0.5674,0.1317,-1.0679,9.1368,0.3133,3.5702,1.2971,-0.8317,-0.9485,9.2619,0.4179,0.2482,-0.429484,0,1698651637.8572,46
-0.0551,0.4089,-0.3546,-0.5654,0.44,-1.7141,-2.0842,-1.4065,8.8727,0.6572,0.2981,-0.152,-1.0388,9.1487,0.3303,3.5425,1.305,-0.9623,-0.8215,9.2181,0.4298,0.1725,-0.537409,0,1698651637.8678,47
-0.0496,0.4183,-0.3564,-0.4639,0.4298,-1.7914,-1.9277,-1.4236,8.9341,0.5789,0.1213,-0.3783,-0.9914,9.136,0.3774,3.4735,1.2753,-1.0041,-0.7033,9.2041,0.4203,0.0289,-0.629373,0,1698651637.8779,47
-0.0438,0.4608,-0.3567,-0.3651,0.4576,-1.8369,-1.7405,-1.3551,8.885,0.537,-0.0681,-0.3334,-0.8813,9.1294,0.4076,3.5198,1.086,-1.1193,-0.6192,9.1918,0.3456,-0.1446,-0.705814,0,1698651637.8876,48
-0.0373,0.5295,-0.3566,-0.2866,0.4324,-1.9029,-1.5422,-1.3126,8.7172,0.5782,-0.06,-0.4715,-0.7941,9.0756,0.4362,3.5526,0.795,-1.3868,-0.5419,9.1898,0.4177,-0.2438,-0.769339,0,1698651637.8981,49
-0.0308,0.5584,-0.3564,-0.2208,0.3217,-1.9346,-1.3456,-1.2473,8.7032,0.5384,0.0263,-0.5634,-0.7196,8.9587,0.5896,3.4498,0.6449,-1.8468,-0.4086,9.2097,0.5518,-0.2976,-0.820839,0,1698651637.9076,50
-0.0242,0.5616,-0.3562,-0.1555,0.1453,-1.966,-1.1554,-1.1807,8.7687,0.4842,0.0235,-0.443,-0.6744,8.8965,0.6967,3.3763,0.5879,-2.1948,-0.2633,9.2526,0.567,-0.3824,-0.86084,0,1698651637.9177,50
-0.0177,0.5704,-0.356,-0.1152,-0.0326,-1.9572,-0.9404,-1.1277,8.7945,0.457,-0.0179,-0.341,-0.688,8.9251,0.6735,3.3097,0.7421,-2.1259,-0.1999,9.2758,0.5937,-0.4387,-0.89191,0,1698651637.9292,51
-0.0111,0.5911,-0.3555,-0.0808,-0.2211,-1.9307,-0.7282,-1.0323,9.0051,0.2622,-0.0943,-0.2022,-0.7223,8.9821,0.6411,3.2838,1.0333,-1.8909,-0.183,9.2892,0.6294,-0.4851,-0.916044,0,1698651637.9394,52
-0.0044,0.6008,-0.3543,-0.0258,-0.3794,-1.8761,-0.5267,-1.0199,9.2603,0.085,-0.2057,-0.0713,-0.7524,9.035,0.6466,3.2517,1.256,-1.6853,-0.1733,9.3323,0.6743,-0.5788,-0.934789,0,1698651637.9489,53
0.0016,0.5771,-0.3519,0.0506,-0.4435,-1.8047,-0.2611,-1.0819,9.2111,0.1638,-0.3416,-0.0361,-0.7605,9.0768,0.6651,3.2267,1.2688,-1.593,-0.1478,9.3527,0.6821,-0.695,-0.949348,0,1698651637.9591,53
0.0069,0.5546,-0.3484,0.1273,-0.5206,-1.7228,0.044,-1.0301,8.9074,0.306,-0.5239,-0.0454,-0.7437,9.1368,0.6754,3.2191,1.0972,-1.6533,-0.0948,9.33,0.6545,-0.7608,-0.960657,0,1698651637.9685,54
0.0121,0.5594,-0.3444,0.2162,-0.6359,-1.6327,0.3117,-0.9022,8.6788,0.4381,-0.6978,-0.1004,-0.6787,9.1869,0.6803,3.1806,0.8148,-1.7351,-0.0196,9.2549,0.5941,-0.7711,-0.969441,0,1698651637.9774,55
0.0174,0.5546,-0.3395,0.3173,-0.7936,-1.55,0.5307,-0.8195,8.5611,0.4998,-0.8202,-0.2419,-0.5635,9.1965,0.6541,3.1234,0.4531,-1.8157,0.084,9.191,0.5268,-0.7671,-0.976264,0,1698651637.9875,56
0.0228,0.5372,-0.3334,0.3772,-0.8846,-1.4807,0.6948,-0.8172,8.7452,0.459,-0.905,-0.4626,-0.4185,9.2103,0.6166,3.0723,0.0904,-1.8749,0.1816,9.2023,0.4949,-0.7468,-0.981564,0,1698651637.9977,56
0.0287,0.5344,-0.3274,0.4183,-0.83,-1.4021,0.8052,-0.8368,9.0689,0.4717,-0.9257,-0.6698,-0.2634,9.2814,0.5857,3.0353,-0.2544,-1.8826,0.2607,9.2693,0.4738,-0.7174,-0.98568,0,1698651638.0075,57
0.035,0.5387,-0.3218,0.4709,-0.6725,-1.2576,0.8936,-0.8338,9.0979,0.5813,-0.9077,-0.7158,-0.1088,9.3802,0.5362,3.0282,-0.5734,-1.8928,0.3213,9.3465,0.4417,-0.6663,-0.988877,0,1698651638.0174,58
0.0413,0.5486,-0.3164,0.4873,-0.4045,-1.0916,0.9801,-0.7939,9.0759,0.6591,-0.8195,-0.7208,0.0684,9.477,0.4789,3.0189,-0.8987,-1.933,0.3676,9.4591,0.3814,-0.6159,-0.991361,0,1698651638.0281,59
0.047,0.5536,-0.3117,0.4514,-0.1452,-0.938,1.0481,-0.7722,9.078,0.7282,-0.6761,-0.7937,0.2589,9.5901,0.4193,3.0299,-1.136,-1.9447,0.4257,9.5957,0.3127,-0.5832,-0.99329,0,1698651638.0375,59
0.0526,0.5692,-0.3088,0.3854,0.0579,-0.7735,1.0584,-0.7847,9.1098,0.7289,-0.5067,-0.9304,0.4511,9.6924,0.3442,3.0339,-1.1916,-2.0544,0.4844,9.7064,0.2885,-0.5075,-0.994788,0,1698651638.0476,60
0.0581,0.5749,-0.3077,0.3035,0.2148,-0.6415,1.0382,-0.8394,9.1965,0.6631,-0.3428,-1.1354,0.632,9.77,0.2789,2.9913,-1.1693,-2.2631,0.5292,9.8143,0.2507,-0.4356,-0.995952,0,1698651638.0579,61
0.0631,0.5509,-0.3075,0.2321,0.3827,-0.5628,1.0413,-0.9462,9.3414,0.6465,-0.2146,-1.3339,0.7682,9.8683,0.2576,2.962,-1.1493,-2.3596,0.575,9.9556,0.2425,-0.4161,-0.996855,0,1698651638.0677,61
0.0676,0.5263,-0.3076,0.1738,0.5489,-0.494,1.0326,-1.0832,9.4612,0.5818,-0.1662,-1.4276,0.851,9.9689,0.2496,2.945,-1.0205,-2.2829,0.6115,10.0768,0.274,-0.4299,-0.997558,0,1698651638.0775,62
0.0724,0.5301,-0.3078,0.1166,0.6908,-0.4678,0.9833,-1.2404,9.5288,0.4169,-0.2232,-1.3733,0.894,10.0476,0.2394,2.9188,-0.8045,-2.1577,0.6586,10.1183,0.2611,-0.4753,-0.998103,0,1698651638.0874,63
0.0772,0.5264,-0.3081,0.0709,0.8453,-0.485,0.9407,-1.3831,9.635,0.1808,-0.2827,-1.2895,0.9274,10.0889,0.2304,2.8757,-0.6248,-1.9718,0.7531,10.1481,0.2415,-0.5295,-0.998526,0,1698651638.0979,64
0.0811,0.4828,-0.3086,0.0388,0.9858,-0.5597,0.9485,-1.5364,9.7739,-0.1055,-0.3324,-1.2695,0.9525,10.1234,0.2127,2.8294,-0.4282,-1.6757,0.8887,10.1833,0.2267,-0.5946,-0.998855,0,1698651638.108,64
0.085,0.466,-0.3101,-0.0015,1.2347,-0.7524,0.9512,-1.7546,9.9182,-0.4088,-0.423,-1.2795,0.9626,10.1687,0.2006,2.7859,-0.145,-1.3674,1.0384,10.1909,0.1888,-0.7051,-0.999111,0,1698651638.1179,65
0.0897,0.4795,-0.3124,-0.0554,1.4535,-1.0256,0.937,-2.007,9.6408,-0.6009,-0.5769,-1.3052,0.9705,10.2065,0.1986,2.7167,0.2317,-1.1159,1.1657,10.1617,0.1244,-0.8548,-0.999308,0,1698651638.1274,66
0.095,0.4943,-0.3149,-0.0969,1.5255,-1.3341,0.9406,-2.2391,9.3479,-0.7795,-0.7978,-1.2527,0.9817,10.2169,0.2354,2.6618,0.5038,-1.1124,1.3012,10.1225,0.0994,-0.9724,-0.999461,0,1698651638.1379,67
0.1001,0.5171,-0.3167,-0.1158,1.636,-1.6837,0.9348,-2.4555,9.5052,-1.0232,-0.8987,-1.2529,1.016,10.1988,0.3197,2.648,0.5516,-1.3465,1.4866,10.1474,0.1145,-1.0859,-0.999581,0,1698651638.1475,67
0.1049,0.5353,-0.3173,-0.1075,1.7934,-2.1017,0.8928,-2.5794,9.7926,-1.2232,-0.9072,-1.495,1.0409,10.2515,0.3973,2.6627,0.5555,-1.761,1.6783,10.3027,0.1306,-1.1738,-0.999674,0,1698651638.1575,68
0.1099,0.5337,-0.3171,-0.0809,1.9693,-2.5398,0.8124,-2.5571,10.1283,-1.3241,-1.062,-1.8007,0.9929,10.4074,0.4856,2.6273,0.5866,-2.2023,1.8017,10.5966,0.1815,-1.2068,-0.999747,0,1698651638.1676,69
0.1141,0.4995,-0.3167,-0.0595,2.2295,-2.9338,0.75,-2.4747,10.4051,-1.3019,-1.3655,-2.3185,0.8534,10.5534,0.5392,2.5758,0.6926,-2.7461,1.9316,10.8422,0.2392,-1.2284,-0.999803,0,1698651638.1775,70
0.1166,0.4355,-0.3156,-0.0149,2.5126,-3.2457,0.7118,-2.2656,10.6701,-1.1446,-1.7734,-2.7854,0.5993,10.7402,0.5068,2.6542,0.9684,-3.6884,2.179,11.1295,0.2322,-1.2129,-0.999847,0,1698651638.1876,70
0.1177,0.3607,-0.3126,0.0922,2.4317,-3.3781,0.5943,-1.8726,10.9027,-0.8829,-2.2862,-2.624,0.2818,11.0594,0.4039,2.8458,1.5166,-4.8497,2.3295,11.4772,0.1201,-0.9795,-0.999881,0,1698651638.1977,71
0.1179,0.2805,-0.3075,0.2021,2.091,-3.4579,0.4093,-1.3404,11.2888,-0.6725,-2.5686,-2.1902,0.0565,11.3468,0.2072,3.0275,2.1112,-5.8762,2.2529,11.6679,-0.1038,-0.8113,-0.999908,0,1698651638.2084,72
0.1177,0.1961,-0.3001,0.3349,1.9184,-3.4867,0.2725,-0.8227,11.5952,-0.3366,-2.419,-2.1779,0.0391,11.5284,-0.013,3.1151,2.3472,-6.619,2.1508,11.6818,-0.3525,-0.96,-0.999928,0,1698651638.2174,73
0.1175,0.1298,-0.2911,0.4656,2.0068,-3.3113,0.1994,-0.3533,11.6004,0.2031,-2.1971,-2.6413,0.1722,11.6339,-0.2554,3.1672,2.2697,-6.9497,2.0664,11.5662,-0.5883,-1.1257,-0.999944,0,1698651638.2274,73
0.1169,0.073,-0.2823,0.5123,2.1563,-2.9595,0.0966,0.1275,11.5295,0.7369,-2.1296,-3.1137,0.3642,11.6565,-0.527,3.2453,1.9386,-6.7088,1.9897,11.431,-0.8146,-1.2023,-0.999955,0,1698651638.2381,74
0.1148,-0.026,-0.2747,0.5483,2.4259,-2.5064,-0.0292,0.4473,11.621,1.1782,-2.0498,-3.4116,0.6156,11.6144,-0.7287,3.3167,1.4922,-5.9158,1.9515,11.303,-0.9651,-1.2081,-0.999957,0,1698651638.2476,75
0.1105,-0.1459,-0.2687,0.5612,2.8168,-1.9977,-0.1355,0.6102,11.723,1.5203,-1.7868,-3.5152,0.9268,11.5662,-0.8596,3.382,1.2681,-4.6003,1.909,11.2327,-1.0533,-1.1744,-0.999931,0,1698651638.2578,76
0.1038,-0.2771,-0.2634,0.5471,3.037,-1.41,-0.2215,0.7709,11.515,1.7822,-1.4402,-3.4312,1.2477,11.501,-0.9611,3.4683,1.2859,-2.9521,1.8658,11.1968,-1.1136,-1.1241,-0.99888,0,1698651638.268,76
0.0939,-0.451,-0.2573,0.5712,3.1023,-0.8708,-0.2286,0.823,11.3691,1.9902,-1.0977,-3.3088,1.5208,11.3282,-0.9971,3.6032,1.3968,-1.2722,1.8365,11.1122,-1.1174,-1.0781,-0.986278,0,1698651638.2775,77
0.0812,-0.6535,-0.2505,0.6121,2.9348,-0.4682,-0.2162,0.6703,11.3168,2.1351,-0.8367,-3.1669,1.7398,11.0847,-0.958,3.7317,1.6679,0.1434,1.9407,10.9346,-1.0955,-1.0475,-0.917602,0,1698651638.2875,78
0.0658,-0.8456,-0.2431,0.6602,2.5832,-0.1564,-0.2108,0.4706,11.2232,2.1264,-0.7329,-2.8735,1.892,10.8103,-0.8619,3.8043,2.2321,1.2548,2.1717,10.7212,-1.107,-1.0237,-0.653718,0,1698651638.2977,79
0.0474,-1.0902,-0.2351,0.6846,2.2888,0.0466,0.0711,0.2175,11.1797,2.098,-0.7358,-2.4512,1.9881,10.4934,-0.7491,3.8746,2.6422,2.1445,2.2752,10.517,-1.008,-0.9368,-0.285425,0,1698651638.3077,79
0.0274,-1.3901,-0.227,0.6782,2.0192,0.1796,0.3242,-0.1216,11.0485,2.093,-0.8769,-1.981,2.0184,10.1792,-0.6475,3.9565,2.533,2.8288,2.2192,10.3568,-0.8112,-0.756,0.001551,0,1698651638.3179,80
0.0067,-1.6373,-0.2185,0.7214,1.8439,0.2983,0.3112,-0.4946,10.7086,1.9996,-1.1502,-1.5424,1.9686,9.8632,-0.5675,4.004,1.9002,3.2537,2.0991,10.2679,-0.6219,-0.4915,0.224475,0,1698651638.3284,81
-0.0145,-1.728,-0.2099,0.7696,1.7197,0.3384,0.2695,-0.8166,10.4373,1.9342,-1.4689,-1.2282,1.8575,9.6127,-0.5303,4.0217,0.6536,3.289,1.9666,10.2325,-0.5473,-0.2473,0.397426,0,1698651638.3373,81
-0.0345,-1.7293,-0.2009,0.772,1.3931,0.3031,0.1528,-0.9839,10.1905,1.9303,-1.7225,-1.0941,1.6835,9.4595,-0.5516,4.0058,-0.7382,3.0615,1.9472,10.2389,-0.6297,-0.0395,0.308636,0,1698651638.3475,82
-0.0527,-1.7064,-0.1916,0.7716,0.9749,0.2067,-0.0171,-1.0494,10.0528,1.8481,-1.968,-1.1092,1.4852,9.4378,-0.6408,3.9507,-1.4093,2.682,1.823,10.3993,-0.7912,0.3972,0.016605,0,1698651638.3577,83
-0.0704,-1.6666,-0.182,0.8109,0.5948,0.0406,-0.1977,-1.0976,10.053,1.7647,-2.1996,-1.2198,1.3023,9.4894,-0.7708,3.8309,-1.0392,2.6455,1.4701,10.5633,-0.9263,0.83,-0.210355,0,1698651638.3682,84
-0.088,-1.6549,-0.1723,0.8817,0.3429,-0.1293,-0.3141,-1.0714,10.1042,1.7713,-2.2525,-1.3977,1.0783,9.4918,-0.9397,3.6747,-0.8122,2.485,1.2675,10.5144,-1.0168,0.7767,-0.386635,0,1698651638.3775,84
-0.1057,-1.6416,-0.1627,0.924,0.2709,-0.2468,-0.3218,-0.9712,10.0983,1.8922,-2.2212,-1.4839,0.8465,9.5396,-1.1529,3.5409,-0.9035,1.9428,1.14,10.4881,-1.1424,0.7212,-0.523562,0,1698651638.3883,85
-0.1239,-1.6155,-0.1536,0.9297,0.2354,-0.2732,-0.229,-0.8041,10.0611,1.9943,-2.1236,-1.3549,0.68,9.6666,-1.3725,3.4466,-0.602,1.8387,0.9106,10.5428,-1.2721,0.8921,-0.629911,0,1698651638.3975,86
-0.1416,-1.6035,-0.145,0.9356,0.1627,-0.2316,-0.041,-0.6264,10.0418,2.0403,-1.9455,-0.8917,0.5609,9.8106,-1.5294,3.3912,0.1426,2.3944,0.7094,10.6187,-1.3736,0.945,-0.712234,0,1698651638.4075,87
-0.158,-1.6148,-0.137,0.9081,0.1326,-0.1584,0.2269,-0.4812,9.9814,2.0803,-1.733,-0.5651,0.4923,9.9046,-1.6278,3.267,0.4849,3.0177,0.5846,10.6335,-1.4206,0.8981,-0.774902,0,1698651638.4174,87
-0.1738,-1.6187,-0.1294,0.8772,0.0461,-0.0376,0.5236,-0.3291,9.8599,2.0878,-1.5228,-0.5526,0.4603,9.8993,-1.6609,3.1357,0.4568,3.4116,0.4707,10.5403,-1.4272,0.8633,-0.822779,0,1698651638.4276,88
-0.189,-1.6413,-0.1219,0.8531,-0.0875,0.1406,0.8282,-0.176,9.6084,2.0974,-1.4175,-0.5071,0.4354,9.8083,-1.6321,3.0565,0.7043,3.7192,0.3472,10.3324,-1.3567,0.7606,-0.855229,0,1698651638.4375,89
-0.2037,-1.5961,-0.115,0.8278,-0.1955,0.32,1.1245,-0.0095,9.4555,2.0607,-1.4243,-0.3899,0.3923,9.6916,-1.5739,2.9821,0.5505,3.6829,0.2462,10.0947,-1.2712,0.551,-0.87694,0,1698651638.4474,90
-0.2176,-1.5115,-0.1081,0.8258,-0.2572,0.5172,1.3921,0.0795,9.3547,1.9403,-1.462,-0.1311,0.328,9.5834,-1.4988,2.9251,0.1345,3.6197,0.0988,9.9483,-1.2347,0.4453,-0.898876,0,1698651638.4578,90
-0.2307,-1.4535,-0.101,0.798,-0.2132,0.7317,1.6247,0.151,9.1945,1.808,-1.4768,0.2055,0.2637,9.4667,-1.4191,2.8964,-0.2815,3.6218,-0.0959,9.7779,-1.2085,0.4729,-0.919497,0,1698651638.4676,91
-0.2427,-1.3507,-0.0939,0.7805,-0.1423,0.9384,1.8155,0.2419,9.0779,1.6686,-1.4567,0.6348,0.2163,9.3333,-1.3392,2.853,-0.9643,3.7913,-0.3596,9.594,-1.1716,0.4451,-0.935865,0,1698651638.4776,92
-0.2536,-1.2499,-0.0864,0.7759,-0.083,1.1254,1.9535,0.3194,8.9735,1.5711,-1.3636,1.1114,0.199,9.1861,-1.2791,2.7839,-1.9377,3.992,-0.6138,9.4811,-1.1598,0.343,-0.949497,0,1698651638.4876,93
-0.2635,-1.1521,-0.0787,0.7724,-0.0293,1.2638,2.0224,0.3779,8.887,1.4448,-1.2257,1.5839,0.201,9.0421,-1.2559,2.7306,-3.0841,4.0908,-0.8155,9.3937,-1.1797,0.3463,-0.960692,0,1698651638.4982,93
-0.2725,-1.0668,-0.071,0.7674,-0.0267,1.373,2.0665,0.3419,8.9353,1.2163,-1.1381,2.0847,0.1991,8.9228,-1.2681,2.6937,-4.0444,4.2766,-0.9492,9.2849,-1.2043,0.3917,-0.969467,0,1698651638.5077,94
-0.2804,-1.009,-0.063,0.7469,-0.0205,1.4468,2.0974,0.2592,8.9257,1.1088,-1.0556,2.4864,0.1933,8.828,-1.2783,2.6562,-4.6497,4.3825,-1.0283,9.2143,-1.1822,0.4037,-0.976284,0,1698651638.5182,95
-0.2871,-0.9402,-0.0553,0.7391,-0.0003,1.4759,2.0941,0.2096,8.967,1.0114,-0.9975,2.6638,0.1829,8.7776,-1.2665,2.6154,-4.9307,4.5373,-1.0779,9.2428,-1.0723,0.5014,-0.981579,0,1698651638.5274,96
-0.2932,-0.8659,-0.0478,0.7123,-0.052,1.508,2.0489,0.2272,8.9907,0.8917,-1.0172,2.7062,0.1544,8.7499,-1.2183,2.5828,-4.6061,4.3797,-1.107,9.1674,-1.0244,0.5843,-0.985692,0,1698651638.5374,96
-0.298,-0.7702,-0.0407,0.7014,-0.1611,1.5379,1.9559,0.2882,9.0706,0.7434,-1.0409,2.6939,0.1032,8.7384,-1.2461,2.5677,-3.962,3.9189,-1.1466,9.0586,-1.0641,0.6105,-0.988886,0,1698651638.5473,97
-0.3015,-0.6515,-0.0339,0.7316,-0.3047,1.5374,1.8239,0.3286,9.192,0.6094,-1.1983,2.387,0.0064,8.7005,-1.2717,2.5848,-3.4983,3.7238,-1.122,9.0382,-1.0851,0.6351,-0.991367,0,1698651638.558,98
-0.3037,-0.5303,-0.0269,0.7409,-0.4545,1.5489,1.6346,0.4397,9.1377,0.507,-1.3836,1.8153,-0.1072,8.6131,-1.2804,2.5543,-3.2762,3.7657,-1.0441,9.0171,-1.0984,0.6002,-0.993294,0,1698651638.5676,99
-0.3048,-0.4178,-0.0202,0.7258,-0.6187,1.5322,1.3784,0.5633,9.1503,0.3986,-1.3673,1.2418,-0.1971,8.6128,-1.3082,2.5233,-3.2187,3.9576,-0.9069,8.9905,-1.1286,0.5758,-0.994791,0,1698651638.5782,99
-0.3051,-0.324,-0.0139,0.7098,-0.7461,1.4503,1.0925,0.5715,9.1906,0.3817,-1.3206,0.7299,-0.249,8.6449,-1.305,2.5073,-3.1349,4.0513,-0.7637,8.9276,-1.1672,0.6549,-0.995954,0,1698651638.5876,0
-0.305,-0.2423,-0.0078,0.6855,-0.8392,1.3551,0.7903,0.4912,9.1623,0.359,-1.3235,0.2291,-0.2936,8.5959,-1.3487,2.4406,-2.8746,3.8982,-0.6848,8.8771,-1.2259,0.734,-0.996857,0,1698651638.5975,1
-0.3049,-0.1642,-0.0023,0.6458,-1.0257,1.2752,0.4542,0.4093,9.2119,0.2537,-1.3786,-0.0465,-0.341,8.593,-1.4743,2.3765,-2.5515,3.6703,-0.6389,8.862,-1.3254,0.7465,-0.997559,0,1698651638.6076,1
-0.3049,-0.1055,0.0029,0.609,-1.2634,1.1637,0.1019,0.2848,9.3173,0.1578,-1.4819,-0.2614,-0.3966,8.636,-1.6296,2.3233,-2.2212,3.4403,-0.5998,8.8743,-1.4401,0.7843,-0.998104,0,1698651638.6184,2
-0.3048,-0.0854,0.0084,0.5863,-1.4199,1.0004,-0.2365,0.0985,9.2508,0.1385,-1.5468,-0.4829,-0.4219,8.6867,-1.7687,2.2669,-1.8923,3.1987,-0.561,8.8962,-1.565,0.8436,-0.998527,0,1698651638.6278,3
-0.3048,-0.0768,0.0138,0.5579,-1.4776,0.8412,-0.5444,-0.0408,9.1395,0.1292,-1.5724,-0.4206,-0.3572,8.7574,-1.904,2.2502,-1.5566,2.8926,-0.5231,8.9257,-1.6923,0.8904,-0.998854,0,1698651638.6385,4
-0.3048,-0.0596,0.0186,0.5267,-1.484,0.6885,-0.8169,-0.157,9.0903,0.1252,-1.5217,-0.4753,-0.2847,8.8297,-1.9872,2.2882,-1.2551,2.4775,-0.4724,8.9663,-1.8013,0.9049,-0.999102,0,1698651638.648,4
-0.3047,-0.0614,0.0236,0.5181,-1.501,0.5521,-1.0243,-0.2284,8.9539,0.1485,-1.2675,-0.5399,-0.1824,8.9518,-2.0529,2.3279,-1.0097,2.0452,-0.3853,9.0681,-1.9201,0.8916,-0.999278,0,1698651638.6575,5
-0.3047,-0.0728,0.029,0.5288,-1.5312,0.4708,-1.1538,-0.1624,8.8525,0.1835,-1.0607,-0.6276,-0.0885,9.0272,-2.075,2.277,-0.7408,1.9293,-0.3423,9.2113,-1.9726,0.9208,-0.999389,0,1698651638.6688,6
-0.3046,-0.0658,0.0343,0.5248,-1.4643,0.4094,-1.2152,-0.0489,8.9278,0.223,-1.1156,-1.0025,-0.0633,9.0462,-2.0144,2.1992,-0.5063,1.9108,-0.3771,9.2451,-1.8712,0.8622,-0.999457,0,1698651638.6791,7
-0.3045,-0.0484,0.0391,0.5196,-1.3084,0.3608,-1.2186,0.0422,9.0348,0.2456,-1.2572,-1.402,-0.0786,9.1032,-1.9192,2.2259,-0.3617,1.6587,-0.4528,9.2972,-1.7149,0.8306,-0.999481,0,1698651638.6891,7
-0.3042,-0.032,0.0436,0.5011,-1.0935,0.3649,-1.142,0.1432,9.0942,0.2241,-1.3577,-1.5963,-0.1255,9.2116,-1.8285,2.2704,-0.3107,1.2695,-0.5251,9.4459,-1.6229,0.9055,-0.999364,0,1698651638.6989,8
-0.3036,-0.0111,0.0482,0.4716,-0.9181,0.4072,-1.0399,0.3239,9.0954,0.2842,-1.314,-1.5999,-0.1559,9.3415,-1.8005,2.2913,-0.2958,0.7677,-0.566,9.5949,-1.6122,0.9527,-0.998571,0,1698651638.7086,9
-0.3023,0.0318,0.0519,0.441,-0.8612,0.4759,-0.9767,0.5555,9.3075,0.2565,-1.1667,-1.5464,-0.1642,9.4798,-1.8354,2.318,-0.2186,0.2093,-0.5858,9.7616,-1.6604,0.9885,-0.992716,0,1698651638.7185,10
-0.2995,0.0979,0.0544,0.3955,-0.7845,0.5633,-0.9371,0.6589,9.5687,0.1391,-0.9381,-1.4145,-0.157,9.6204,-1.8668,2.3417,-0.0232,-0.3634,-0.5961,9.9184,-1.7266,0.9811,-0.935249,0,1698651638.7275,10
-0.2955,0.1735,0.0558,0.359,-0.696,0.6926,-0.9174,0.6906,9.627,0.108,-0.6915,-1.1953,-0.1386,9.7309,-1.9115,2.3377,0.2965,-0.8721,-0.6143,10.0335,-1.7637,0.9499,-0.882828,0,1698651638.7382,11
-0.2909,0.2393,0.0571,0.3393,-0.7244,0.8807,-0.8824,0.7649,9.7766,0.0379,-0.5118,-0.985,-0.1158,9.8387,-1.9649,2.3276,0.6317,-1.2315,-0.6174,10.1063,-1.7728,0.883,-0.895679,0,1698651638.7474,12
-0.2871,0.2681,0.0592,0.3325,-0.7516,1.0363,-0.7837,0.7743,9.9555,-0.0583,-0.1218,-0.8438,-0.0939,9.9357,-1.9963,2.3042,0.916,-1.3819,-0.6018,10.1521,-1.7537,0.7855,-0.91885,0,1698651638.7575,13
-0.285,0.2592,0.062,0.3141,-0.6423,1.1554,-0.6372,0.6696,9.9045,-0.1156,0.2093,-0.752,-0.1024,9.9801,-1.9661,2.2615,1.0805,-1.4332,-0.5728,10.1656,-1.7119,0.6783,-0.936959,0,1698651638.768,13
-0.2843,0.2255,0.0649,0.2983,-0.5268,1.2845,-0.4782,0.5538,9.8512,-0.2165,0.2304,-0.6373,-0.1422,9.9897,-1.9258,2.193,1.0634,-1.4389,-0.5314,10.1736,-1.6753,0.591,-0.951023,0,1698651638.7773,14
-0.2842,0.1805,0.0672,0.2723,-0.4208,1.3934,-0.3283,0.4609,9.9132,-0.3545,0.2246,-0.4885,-0.1817,9.9975,-1.9106,2.1268,0.9718,-1.4135,-0.4814,10.205,-1.6486,0.5392,-0.961929,0,1698651638.7876,15
-0.2841,0.1399,0.0688,0.2367,-0.3505,1.5112,-0.2246,0.4333,9.9478,-0.4221,0.169,-0.436,-0.2251,10.0027,-1.8894,2.0771,0.8861,-1.4619,-0.4204,10.2588,-1.6313,0.5375,-0.970324,0,1698651638.7977,16
-0.2838,0.1236,0.0701,0.2186,-0.4134,1.6452,-0.1492,0.5026,10.1259,-0.4695,0.2111,-0.4481,-0.2682,10.0565,-1.8865,2.0143,0.8426,-1.6504,-0.3568,10.3321,-1.6328,0.5666,-0.975578,0,1698651638.8081,16
-0.2827,0.1327,0.0716,0.19,-0.4938,1.7681,-0.0693,0.5459,10.2531,-0.4831,0.3647,-0.4787,-0.2966,10.1768,-1.9119,1.9836,0.9016,-1.9945,-0.2981,10.4128,-1.6441,0.5845,-0.948451,0,1698651638.8186,17
-0.2799,0.1742,0.0734,0.1573,-0.5179,1.9019,0.0336,0.5598,10.2642,-0.4426,0.4824,-0.6082,-0.3101,10.3291,-1.962,2.0042,1.0072,-2.4075,-0.2345,10.4835,-1.6572,0.5708,-0.843988,0,1698651638.8275,18
-0.275,0.257,0.0748,0.137,-0.4071,2.0357,0.1621,0.5409,10.3147,-0.3267,0.5737,-0.8264,-0.2891,10.5142,-1.9911,2.0608,1.0261,-2.77,-0.1622,10.5622,-1.6519,0.5371,-0.633983,0,1698651638.8381,19
-0.268,0.3791,0.0757,0.1134,-0.2734,2.2069,0.2875,0.4715,10.3174,-0.1156,0.7103,-1.1765,-0.2199,10.674,-2.004,2.1451,0.9112,-2.9545,-0.1,10.7185,-1.6181,0.5744,-0.344909,0,1698651638.8474,19
-0.2589,0.5023,0.0761,0.0906,-0.2802,2.3842,0.3986,0.3534,10.5063,0.1478,0.8548,-1.7169,-0.1125,10.8465,-2.0069,2.2558,0.7709,-2.8676,-0.0688,10.9588,-1.5688,0.6805,-0.062437,0,1698651638.8579,20
-0.2485,0.6336,0.0761,0.0724,-0.2668,2.4861,0.5232,0.0631,10.7575,0.4676,0.8971,-2.4213,-0.0061,11.0211,-1.9511,2.381,0.6551,-2.611,-0.082,11.2388,-1.4589,0.7507,0.162879,0,1698651638.8677,21
-0.2373,0.7571,0.0758,0.0514,-0.1916,2.4946,0.6506,-0.3722,10.982,0.8231,0.8481,-3.0792,0.0391,11.1385,-1.7968,2.5008,0.5472,-2.4253,-0.1605,11.519,-1.252,0.799,0.331632,0,1698651638.8779,21
-0.2267,0.7929,0.0748,-0.0172,-0.1358,2.4475,0.8033,-0.8248,11.2663,1.014,0.7445,-3.4291,-0.0008,11.2613,-1.5909,2.628,0.3944,-2.0945,-0.2904,11.7557,-0.9902,0.8582,0.468774,0,1698651638.8877,22
-0.2172,0.7849,0.0715,-0.1398,0.0899,2.3742,1.0591,-1.3673,11.4253,1.277,0.5686,-3.5569,-0.0931,11.3323,-1.3944,2.7514,0.0107,-1.6722,-0.4485,11.8684,-0.7262,0.8901,0.582687,0,1698651638.8975,23
-0.2095,0.7687,0.0648,-0.2719,0.3522,2.2713,1.3166,-1.6615,11.319,1.6926,0.2845,-3.5539,-0.2552,11.3437,-1.2124,2.8777,-0.5353,-1.46,-0.6385,11.9025,-0.4925,0.9843,0.465669,0,1698651638.9077,24
-0.2038,0.7124,0.0553,-0.4703,0.457,2.0908,1.4919,-1.6551,11.2049,1.9567,-0.0103,-3.2942,-0.5208,11.3471,-1.0782,2.9785,-1.1418,-1.3319,-0.8186,11.9349,-0.3062,1.1301,0.15582,0,1698651638.9177,24
-0.2,0.6023,0.0434,-0.6699,0.443,1.8381,1.6152,-1.6085,11.1355,2.0749,-0.1728,-2.6954,-0.8294,11.3148,-0.9568,3.0415,-1.6572,-1.2341,-0.9942,11.8764,-0.1407,1.2515,-0.101969,0,1698651638.9274,25
-0.1982,0.4684,0.0297,-0.8427,0.381,1.589,1.6812,-1.4065,10.9397,2.1611,-0.0741,-1.7232,-1.1279,11.2138,-0.8666,3.1156,-2.274,-1.4598,-1.1451,11.608,-0.0519,1.2353,-0.302473,0,1698651638.9385,26
-0.1976,0.3556,0.0145,-1.0027,0.2187,1.4117,1.6899,-1.0863,10.9169,2.1511,0.2634,-0.5096,-1.3828,11.0014,-0.8096,3.1676,-2.7096,-1.6343,-1.35,11.2026,-0.0324,1.2238,-0.45821,0,1698651638.9481,27
-0.1969,0.2944,-0.0022,-1.1237,-0.0012,1.2893,1.648,-0.7812,11.0158,2.06,0.7701,0.6895,-1.5347,10.6972,-0.7728,3.1585,-2.6602,-1.3028,-1.5987,10.7591,-0.0333,1.3141,-0.579176,0,1698651638.9575,27
-0.1953,0.2888,-0.0201,-1.2422,-0.1089,1.2028,1.5635,-0.5485,10.8734,2.0354,1.3495,1.7036,-1.6016,10.3455,-0.7526,3.138,-2.5698,-0.7615,-1.7391,10.2829,0.0192,1.3168,-0.673133,0,1698651638.9679,28
-0.1921,0.3241,-0.0388,-1.3485,-0.1934,1.1918,1.4391,-0.2868,10.4095,2.0516,1.9145,2.51,-1.5802,9.9392,-0.7093,3.1753,-2.5047,-0.1928,-1.7986,9.7871,0.0586,1.3187,-0.746113,0,1698651638.9778,29
-0.1873,0.3647,-0.058,-1.4843,-0.2761,1.2191,1.2794,-0.0402,9.8941,2.0786,2.4684,3.092,-1.4554,9.5137,-0.6233,3.2508,-2.4934,-0.0187,-1.7665,9.2935,0.0294,1.338,-0.802798,0,1698651638.9875,30
-0.1814,0.3966,-0.0773,-1.5925,-0.3539,1.4968,1.0787,0.1778,9.4757,2.0266,2.8952,3.4717,-1.2801,9.1563,-0.5538,3.337,-2.5025,-0.3036,-1.6274,8.9085,-0.0013,1.3664,-0.846828,0,1698651638.9976,30
-0.1747,0.4509,-0.097,-1.6194,-0.3948,1.7338,0.8503,0.3147,9.3041,1.9384,3.1637,3.6336,-1.0459,8.9246,-0.5453,3.417,-2.3902,-0.7498,-1.4051,8.6857,-0.0618,1.4388,-0.881026,0,1698651639.0085,31
-0.1674,0.5272,-0.1151,-1.672,-0.412,1.7227,0.6329,0.3372,9.3635,1.8325,3.3365,3.5055,-0.7745,8.8641,-0.5448,3.5064,-2.0866,-1.2362,-1.1029,8.658,-0.1369,1.5216,-0.907588,0,1698651639.0178,32
-0.1603,0.5733,-0.1317,-1.747,-0.405,1.7593,0.4307,0.333,9.4093,1.7873,3.4229,3.0863,-0.5101,8.9866,-0.5479,3.6152,-1.5355,-1.6455,-0.7677,8.7987,-0.2024,1.5844,-0.913693,0,1698651639.0274,33
-0.1532,0.6072,-0.1489,-1.7713,-0.3237,1.8073,0.2312,0.2458,9.5043,1.7766,3.5012,2.437,-0.2288,9.2087,-0.5129,3.6796,-0.5662,-1.8765,-0.4638,9.0208,-0.2073,1.5821,-0.709356,0,1698651639.0374,33
-0.146,0.6253,-0.1663,-1.7926,-0.2222,1.8659,0.0267,0.056,9.624,1.7055,3.5645,1.6889,0.0493,9.4643,-0.437,3.6807,0.7013,-1.8463,-0.2073,9.2988,-0.1451,1.5101,-0.341954,0,1698651639.0476,34
-0.1388,0.6338,-0.1837,-1.7735,-0.1254,1.9225,-0.1884,-0.1177,9.5315,1.6991,3.5165,1.02,0.2909,9.6752,-0.3311,3.6281,1.9756,-1.6106,0.0064,9.5568,-0.0369,1.3784,-0.042394,0,1698651639.0582,35
-0.1312,0.6888,-0.2009,-1.7587,-0.1568,1.9213,-0.4406,-0.247,9.534,1.7094,3.3591,0.5244,0.4786,9.7807,-0.2114,3.5638,3.0301,-1.4063,0.1886,9.7523,0.0864,1.2169,0.19027,0,1698651639.0673,36
-0.1237,0.741,-0.2174,-1.7886,-0.3508,1.8505,-0.7371,-0.4484,9.7326,1.6797,3.213,0.1692,0.5979,9.8581,-0.1171,3.513,3.7827,-1.262,0.3071,9.9235,0.1742,1.0767,0.367065,0,1698651639.0774,36
-0.1164,0.7356,-0.2327,-1.8007,-0.4912,1.7494,-1.0254,-0.7059,9.8751,1.627,3.0765,-0.0487,0.6727,9.9225,-0.0705,3.4286,4.225,-1.2778,0.342,10.05,0.2191,0.948,0.461287,0,1698651639.0879,37
-0.109,0.6981,-0.2471,-1.78,-0.5125,1.6062,-1.274,-0.9816,10.0155,1.5542,2.9074,-0.1558,0.7104,9.9126,-0.0595,3.311,4.3061,-1.5287,0.3214,10.1418,0.2433,0.8026,0.342941,0,1698651639.098,38
-0.1017,0.6604,-0.2608,-1.7277,-0.4523,1.4225,-1.4849,-1.1916,10.0347,1.56,2.7326,-0.215,0.7038,9.8844,-0.0785,3.202,4.1585,-1.7849,0.2526,10.2113,0.225,0.6435,0.072688,0,1698651639.1078,39
-0.0947,0.6403,-0.2739,-1.657,-0.3545,1.2636,-1.6556,-1.3193,9.8888,1.604,2.5346,-0.2969,0.668,9.8585,-0.1266,3.1117,3.9255,-1.8893,0.1446,10.2572,0.1768,0.518,-0.164815,0,1698651639.1173,39
-0.0885,0.6481,-0.286,-1.5489,-0.2947,1.107,-1.7908,-1.4435,9.742,1.5891,2.3186,-0.3332,0.5832,9.833,-0.1632,2.971,3.6482,-1.8392,0.0113,10.2619,0.149,0.3989,-0.351033,0,1698651639.1274,40
-0.0828,0.6412,-0.2975,-1.4221,-0.2261,0.9052,-1.8898,-1.5882,9.6763,1.5397,2.121,-0.1935,0.4337,9.8303,-0.1815,2.8278,3.3433,-1.675,-0.1442,10.2177,0.1391,0.2534,-0.495878,0,1698651639.1374,41
-0.0776,0.6103,-0.3082,-1.3121,-0.091,0.6897,-1.9607,-1.7425,9.5158,1.4913,1.9863,-0.0262,0.2784,9.7814,-0.1954,2.7139,3.017,-1.3856,-0.3034,10.1625,0.1157,0.1292,-0.608357,0,1698651639.1474,41
-0.0731,0.5651,-0.3179,-1.2364,0.0609,0.4363,-2.0175,-1.8383,9.4055,1.3994,1.9132,-0.0352,0.1416,9.6927,-0.1955,2.6142,2.6767,-0.9605,-0.4491,10.11,0.113,0.0573,-0.694645,0,1698651639.1579,42
-0.0692,0.521,-0.3263,-1.143,0.166,0.1593,-2.0753,-1.875,9.3693,1.2625,1.8376,-0.233,0.003,9.6486,-0.1748,2.5143,2.4029,-0.3763,-0.5786,10.0602,0.131,-0.0057,-0.748751,0,1698651639.1675,43
-0.0656,0.4905,-0.3338,-1.0224,0.2903,-0.1215,-2.1312,-1.9444,9.3444,1.1321,1.7159,-0.3449,-0.1354,9.6034,-0.1178,2.4273,2.2559,0.2222,-0.6876,9.983,0.1652,-0.0999,-0.689137,0,1698651639.1774,44
-0.0618,0.4807,-0.3402,-0.924,0.3604,-0.3677,-2.1806,-1.9839,9.3851,0.9814,1.4952,-0.4515,-0.2786,9.5256,-0.0136,2.3969,2.2295,0.6949,-0.7928,9.8974,0.2402,-0.1751,-0.511355,0,1698651639.1875,44
-0.0581,0.4661,-0.3455,-0.8515,0.3978,-0.5632,-2.219,-1.9194,9.3182,0.8171,1.2497,-0.6902,-0.4393,9.4555,0.0999,2.349,2.2618,0.9938,-0.9077,9.8041,0.3313,-0.2397,-0.342591,0,1698651639.1981,45
-0.0547,0.4156,-0.3502,-0.7775,0.4907,-0.819,-2.2199,-1.8979,9.3103,0.703,0.9149,-0.8577,-0.5974,9.4342,0.1683,2.3198,2.2759,1.087,-0.9978,9.705,0.3984,-0.3057,-0.239957,0,1698651639.2074,46
-0.052,0.3753,-0.3541,-0.6886,0.4155,-1.0483,-2.2069,-1.8839,9.4212,0.5415,0.5646,-0.8744,-0.721,9.4638,0.1941,2.3335,2.2706,1.0334,-1.0081,9.6525,0.4055,-0.3147,-0.181698,0,1698651639.2175,47
-0.0492,0.3606,-0.3564,-0.5712,0.3111,-1.2308,-2.1959,-1.826,9.4657,0.3519,0.3905,-0.6667,-0.8085,9.4784,0.2305,2.3529,2.3372,0.8638,-0.9676,9.6113,0.3638,-0.3072,-0.139473,0,1698651639.2274,47
-0.0456,0.3565,-0.3571,-0.4398,0.3152,-1.4142,-2.1516,-1.7315,9.2014,0.2917,0.3635,-0.3188,-0.8696,9.4097,0.2916,2.3399,2.5099,0.5609,-0.9548,9.5154,0.322,-0.3528,-0.104531,0,1698651639.2376,48
-0.041,0.3798,-0.357,-0.3395,0.2834,-1.5678,-2.0653,-1.5622,9.0156,0.2565,0.4984,0.0452,-0.9001,9.277,0.3052,2.2724,2.616,0.1696,-0.9645,9.3965,0.2615,-0.4386,-0.08032,0,1698651639.2475,49
-0.0362,0.4207,-0.3568,-0.2794,0.2102,-1.7032,-1.9377,-1.4056,9.1116,0.1792,0.668,0.4396,-0.9195,9.2039,0.2569,2.2461,2.5919,-0.1522,-0.9294,9.2945,0.1921,-0.531,-0.114962,0,1698651639.2574,50
-0.0316,0.4508,-0.3566,-0.2374,0.1073,-1.8,-1.7729,-1.3037,9.1766,0.09,0.8381,0.8379,-0.9303,9.2131,0.221,2.2287,2.5271,-0.334,-0.8212,9.2439,0.1389,-0.5659,-0.214292,0,1698651639.2682,50
-0.0265,0.4915,-0.3563,-0.1843,-0.1133,-1.8572,-1.6024,-1.1987,9.177,0.003,1.0401,1.1149,-0.9276,9.2194,0.2241,2.1903,2.6157,-0.3618,-0.6878,9.2439,0.1163,-0.5975,-0.320251,0,1698651639.2777,51
-0.0209,0.5144,-0.3561,-0.1354,-0.3178,-1.8939,-1.4188,-1.1205,9.0446,-0.0503,1.1876,1.2509,-0.9315,9.2011,0.2124,2.1596,2.7936,-0.4371,-0.7699,9.2012,0.0961,-0.6947,-0.421533,0,1698651639.2883,52
-0.0153,0.5255,-0.3555,-0.0826,-0.5832,-1.8731,-1.202,-1.1791,8.9219,-0.1201,1.2911,1.3189,-0.9498,9.1535,0.207,2.1361,2.8781,-0.6516,-0.8192,9.1257,0.0831,-0.789,-0.516364,0,1698651639.2973,53
-0.0097,0.5796,-0.3539,0.0111,-0.9052,-1.9446,-0.9706,-1.2357,9.0792,-0.1029,1.4175,1.4323,-0.9828,9.1103,0.2582,2.1122,2.8048,-0.9213,-0.6504,9.065,0.127,-0.886,-0.596521,0,1698651639.3077,53
-0.0039,0.6171,-0.3506,0.1056,-1.0292,-2.0727,-0.7133,-1.199,9.1041,0.0096,1.5549,1.5843,-1.0059,9.0904,0.3195,2.0987,2.6465,-1.2935,-0.4664,9.1135,0.2012,-0.9303,-0.674392,0,1698651639.3177,54
0.0017,0.6213,-0.346,0.2071,-1.0855,-2.075,-0.3797,-1.1411,8.7759,0.0328,1.6309,1.6802,-0.9974,9.0616,0.4049,2.0989,2.5133,-1.7292,-0.2775,9.1429,0.2812,-0.9781,-0.747016,0,1698651639.3282,55
0.0067,0.601,-0.3399,0.3278,-1.2127,-2.0384,-0.0123,-1.1331,8.4991,0.1647,1.6917,1.6865,-0.9678,9.0646,0.526,2.086,2.3885,-2.0583,-0.1692,9.0938,0.3314,-1.0553,-0.8035,0,1698651639.3373,56
0.0118,0.6049,-0.3328,0.4355,-1.3422,-2.0108,0.2552,-1.1054,8.4058,0.2915,1.6281,1.6181,-0.9013,9.0745,0.5369,2.0001,2.2643,-2.3522,-0.1429,9.1017,0.3589,-1.0824,-0.847373,0,1698651639.3481,56
0.0174,0.6057,-0.3256,0.5198,-1.4905,-2.0167,0.428,-1.0385,8.4602,0.3501,1.3998,1.5897,-0.8455,9.1037,0.5363,1.9926,1.9131,-2.5575,-0.1004,9.1831,0.3829,-1.1455,-0.88145,0,1698651639.3586,57
0.023,0.5672,-0.3188,0.5319,-1.4864,-2.0042,0.5733,-0.9924,8.6174,0.478,1.1593,1.6418,-0.8097,9.1866,0.5981,2.0962,1.3513,-2.6667,-0.0793,9.3012,0.4304,-1.2091,-0.907919,0,1698651639.3687,58
0.0284,0.5726,-0.3131,0.4863,-1.2642,-1.9281,0.6887,-0.9071,8.8125,0.5664,0.9999,1.6984,-0.7394,9.3109,0.6232,2.2114,0.823,-2.7736,-0.1413,9.3857,0.4881,-1.2091,-0.928478,0,1698651639.3793,59
0.0339,0.5745,-0.3097,0.4221,-1.0268,-1.8288,0.7587,-0.8385,8.9784,0.6668,0.968,1.7936,-0.6268,9.4672,0.6252,2.3602,0.243,-2.8738,-0.1869,9.4513,0.4865,-1.1848,-0.944446,0,1698651639.3893,59
0.0389,0.5459,-0.3084,0.3595,-0.7317,-1.7041,0.7825,-0.778,9.0809,0.7151,0.9433,1.8444,-0.4737,9.5959,0.5763,2.4792,-0.3506,-2.9941,-0.1985,9.5237,0.4309,-1.1081,-0.95685,0,1698651639.3991,60
0.0429,0.5124,-0.3084,0.3047,-0.4462,-1.5594,0.7822,-0.7272,9.1754,0.664,0.9394,1.7229,-0.3079,9.7036,0.4763,2.5642,-0.7836,-3.0689,-0.1981,9.5989,0.3659,-1.0222,-0.966484,0,1698651639.4084,61
0.0464,0.4777,-0.3085,0.2422,-0.2031,-1.4437,0.7504,-0.6183,9.3095,0.5606,0.927,1.4606,-0.134,9.8073,0.3666,2.6275,-1.0892,-3.1065,-0.2106,9.6883,0.2787,-0.9792,-0.973967,0,1698651639.4179,61
0.0504,0.466,-0.3088,0.1673,0.0368,-1.3367,0.6967,-0.503,9.3262,0.4563,0.8765,1.1359,0.0557,9.902,0.2658,2.6885,-1.3112,-3.0522,-0.2041,9.7676,0.1883,-0.9973,-0.97978,0,1698651639.4274,62
0.055,0.4743,-0.3092,0.1035,0.2802,-1.2102,0.6252,-0.4821,9.2385,0.3383,0.8859,0.7933,0.2243,9.9938,0.12,2.7318,-1.5135,-3.0305,-0.0857,10.0179,0.0195,-1.1342,-0.984294,0,1698651639.4374,63
0.0598,0.4549,-0.3097,0.0727,0.569,-1.1059,0.5526,-0.5495,9.3093,0.1548,0.8761,0.3994,0.3808,9.9656,0.0323,2.6663,-1.6238,-3.3349,0.0634,10.1656,-0.094,-1.269,-0.987801,0,1698651639.4481,64
0.0641,0.4262,-0.3098,0.0562,0.8573,-1.0249,0.7127,-0.7016,9.6415,-0.076,0.7798,-0.025,0.5663,9.9659,0.0744,2.5901,-1.32,-3.3412,0.1757,10.0969,-0.0686,-1.315,-0.990525,0,1698651639.4578,64
0.0685,0.4415,-0.3098,0.0434,1.0505,-0.9723,0.8064,-0.8357,9.9458,-0.3242,0.6488,-0.4134,0.7248,10.1238,0.1415,2.5813,-0.3946,-2.3653,0.2417,10.1294,0.1302,-1.0601,-0.99264,0,1698651639.4674,65
0.0734,0.4679,-0.3098,0.0337,1.1315,-0.9654,0.6388,-0.9929,10.0367,-0.522,0.5113,-0.7314,0.836,10.215,0.1797,2.5315,0.1708,-1.5638,0.3816,10.1361,0.2999,-0.9584,-0.994265,0,1698651639.4776,66
0.0782,0.4715,-0.3098,0.0262,1.1987,-0.9849,0.5342,-1.2338,10.0857,-0.6696,0.3781,-1.0269,0.9224,10.2585,0.2148,2.472,0.1923,-1.3137,0.6138,10.2125,0.2692,-1.1365,-0.995511,0,1698651639.4874,67
0.0819,0.4386,-0.3099,0.0108,1.308,-1.057,0.505,-1.4921,10.2833,-0.7997,0.2371,-1.3552,0.9734,10.3896,0.261,2.4397,0.3045,-1.116,0.8095,10.4217,0.2712,-1.192,-0.996455,0,1698651639.4979,67
0.0851,0.4036,-0.3099,-0.001,1.3929,-1.1838,0.4976,-1.7301,10.5113,-0.8451,0.0935,-1.7245,0.9907,10.5662,0.2958,2.4215,0.3184,-1.0451,0.9981,10.6634,0.298,-1.2589,-0.997195,0,1698651639.5074,68
0.0884,0.3771,-0.3098,-0.0003,1.4563,-1.3164,0.456,-1.9062,10.6337,-0.7954,-0.0692,-2.0752,0.9591,10.7374,0.3135,2.3897,0.3087,-1.0479,1.1464,10.9136,0.3257,-1.3039,-0.997811,0,1698651639.5182,69
0.0914,0.3305,-0.3095,0.0013,1.52,-1.4833,0.3684,-1.9839,10.8353,-0.6836,-0.2927,-2.3707,0.8663,10.881,0.3168,2.3605,0.3123,-1.172,1.2462,11.1614,0.3352,-1.3089,-0.998299,0,1698651639.5274,70
0.0933,0.2702,-0.309,0.0304,1.5175,-1.6913,0.2577,-1.9378,11.1406,-0.5024,-0.5498,-2.676,0.7244,11.0851,0.2964,2.4065,0.402,-1.3826,1.3407,11.4312,0.2928,-1.246,-0.998679,0,1698651639.5381,70
0.0937,0.2273,-0.3076,0.0832,1.3997,-1.8393,0.1155,-1.7385,11.4057,-0.2983,-0.8143,-2.8032,0.5511,11.3825,0.2116,2.5721,0.6532,-1.7482,1.4338,11.6941,0.1528,-1.1771,-0.998974,0,1698651639.5473,71
0.0934,0.1941,-0.3041,0.1832,1.3226,-1.8937,-0.0299,-1.4663,11.5601,-0.0495,-1.0606,-2.7529,0.4233,11.6123,0.0527,2.7353,0.9036,-2.1863,1.4847,11.8492,-0.0429,-1.1759,-0.999203,0,1698651639.5581,72
0.0934,0.1496,-0.2985,0.3068,1.4315,-1.8677,-0.1292,-1.1381,11.5116,0.32,-1.2741,-2.9064,0.4186,11.703,-0.1415,2.7909,0.9993,-2.5377,1.4758,11.8352,-0.2192,-1.2095,-0.99938,0,1698651639.5676,73
0.0929,0.1023,-0.2922,0.3859,1.5033,-1.7351,-0.2882,-0.6681,11.1987,0.7713,-1.4016,-3.3827,0.5803,11.6597,-0.3234,2.8186,0.8734,-2.8644,1.4193,11.645,-0.3847,-1.2351,-0.999517,0,1698651639.5773,73
0.0914,0.0348,-0.2865,0.4333,1.5881,-1.5239,-0.4696,-0.2581,10.9548,1.1488,-1.3736,-3.9759,0.8542,11.5789,-0.4949,2.8572,0.5634,-3.1632,1.3517,11.4184,-0.5224,-1.2301,-0.999615,0,1698651639.588,74
0.0884,-0.0513,-0.2812,0.46,1.8789,-1.2286,-0.5781,0,10.9215,1.3341,-1.2982,-4.446,1.0882,11.5368,-0.6315,2.857,0.2834,-3.2309,1.2778,11.2638,-0.6039,-1.1821,-0.999668,0,1698651639.5974,75
0.0834,-0.1853,-0.2757,0.4787,2.1917,-0.9566,-0.6377,0.1753,10.8429,1.4548,-1.2106,-4.6118,1.253,11.503,-0.7174,2.8934,0.2015,-2.7262,1.1829,11.1424,-0.6236,-1.1224,-0.99956,0,1698651639.608,76
0.0754,-0.3522,-0.2702,0.511,2.3315,-0.6857,-0.5962,0.2142,10.8963,1.533,-1.0617,-4.4568,1.409,11.3766,-0.7092,2.9704,0.315,-1.6532,1.1041,11.0371,-0.5839,-1.108,-0.998607,0,1698651639.6175,76
0.0648,-0.5334,-0.2643,0.57,2.3225,-0.408,-0.5068,0.1055,10.8803,1.5798,-0.8906,-4.1123,1.5388,11.1102,-0.577,3.063,0.4229,-0.536,1.1307,10.9043,-0.466,-1.1514,-0.993732,0,1698651639.6278,77
0.0521,-0.7211,-0.2572,0.6456,2.2602,-0.2791,-0.3974,-0.1629,10.6987,1.6301,-0.7892,-3.5592,1.6072,10.8098,-0.4141,3.1708,0.21,0.1757,1.2809,10.6864,-0.3014,-1.2023,-0.978975,0,1698651639.6377,78
0.0376,-0.9066,-0.2494,0.7041,2.1878,-0.2251,-0.2203,-0.4692,10.6325,1.6403,-0.9236,-2.804,1.6066,10.5128,-0.2884,3.2409,-0.3566,0.7712,1.4947,10.4611,-0.1634,-1.1664,-0.957622,0,1698651639.6477,79
0.0217,-1.0988,-0.2411,0.7547,2.009,-0.2164,-0.0811,-0.6619,10.2627,1.7423,-1.1208,-2.0028,1.5908,10.179,-0.2208,3.2774,-0.9834,1.6138,1.6803,10.3035,-0.1184,-1.0706,-0.952823,0,1698651639.6581,79
0.0045,-1.2645,-0.2321,0.7916,1.7652,-0.3332,-0.002,-0.8562,10.1466,1.7259,-1.3149,-1.3932,1.5581,9.8267,-0.173,3.2919,-1.6509,2.5674,1.7538,10.138,-0.1212,-0.9139,-0.963278,0,1698651639.6682,80
-0.0137,-1.4243,-0.2226,0.805,1.61,-0.5159,0.0655,-1.117,10.3562,1.6083,-1.6164,-0.9913,1.4535,9.544,-0.1244,3.3256,-2.3611,3.5024,1.7486,9.9902,-0.0975,-0.6545,-0.971477,0,1698651639.6778,81
-0.0318,-1.577,-0.2126,0.8334,1.5363,-0.703,0.094,-1.3097,10.3328,1.5809,-1.9513,-0.5606,1.2938,9.3909,-0.1329,3.3748,-2.9732,4.2857,1.714,9.9311,-0.1103,-0.3697,-0.977845,0,1698651639.6878,81
-0.0497,-1.6451,-0.2022,0.8798,1.3972,-0.9225,0.042,-1.3944,10.228,1.5214,-2.282,-0.0872,1.1007,9.3418,-0.228,3.4076,-3.43,4.5958,1.6572,9.9337,-0.1874,-0.0666,-0.982792,0,1698651639.6982,82
-0.0682,-1.6699,-0.1919,0.8995,1.2244,-1.179,-0.0827,-1.4765,10.2278,1.4481,-2.5339,0.1944,0.915,9.355,-0.3841,3.3871,-3.6006,4.3246,1.5807,9.9919,-0.3389,0.2495,-0.986634,0,1698651639.7091,83
-0.0873,-1.6801,-0.1814,0.9054,1.0851,-1.4447,-0.2418,-1.5007,10.2389,1.4581,-2.7491,0.2614,0.7486,9.4213,-0.5696,3.314,-3.4673,3.7108,1.4429,10.086,-0.5167,0.5121,-0.989618,0,1698651639.7187,84
-0.1053,-1.6605,-0.1715,0.9418,0.9377,-1.6554,-0.3918,-1.3576,10.2227,1.4901,-2.9622,0.276,0.5878,9.5268,-0.7665,3.2113,-3.2462,2.9333,1.3248,10.2198,-0.7085,0.6843,-0.991936,0,1698651639.7287,84
-0.1225,-1.674,-0.1623,0.9681,0.7831,-1.8165,-0.5083,-1.1207,10.1778,1.4934,-3.1389,0.3317,0.4262,9.6492,-0.9617,3.0973,-2.8384,2.3745,1.1837,10.3579,-0.8864,0.7982,-0.993737,0,1698651639.7386,85
-0.1406,-1.6711,-0.1533,1.0071,0.6469,-1.9868,-0.5391,-0.8764,10.1084,1.6015,-3.2071,0.409,0.2743,9.7821,-1.1601,3.0226,-2.2438,2.0905,0.9752,10.4524,-1.0091,0.8023,-0.995135,0,1698651639.7479,86
-0.158,-1.6405,-0.1444,1.0079,0.4891,-2.0986,-0.4583,-0.6251,10.1376,1.6902,-3.1791,0.4503,0.1478,9.9324,-1.303,2.9946,-1.7675,1.9474,0.803,10.5546,-1.087,0.7932,-0.996221,0,1698651639.7574,87
-0.1747,-1.6663,-0.135,0.9785,0.3444,-2.1198,-0.2949,-0.3589,10.2228,1.6929,-3.1403,0.4491,0.0444,10.0762,-1.3833,2.9728,-1.3643,2.0118,0.6573,10.6426,-1.144,0.8253,-0.997064,0,1698651639.7674,87
-0.1908,-1.6861,-0.1258,0.9915,0.2737,-2.0681,-0.0487,-0.1665,10.1747,1.7385,-3.0812,0.4414,-0.029,10.1777,-1.4437,2.9216,-1.0085,2.1633,0.5374,10.6443,-1.1806,0.8065,-0.997718,0,1698651639.7776,88
-0.2056,-1.6522,-0.1169,0.9916,0.1081,-1.9069,0.2618,0.0572,10.0504,1.7178,-3.0063,0.3885,-0.0622,10.1886,-1.4856,2.8226,-0.8088,2.6346,0.4417,10.5506,-1.2084,0.735,-0.998226,0,1698651639.7872,89
-0.2193,-1.5937,-0.1085,0.9904,-0.0888,-1.671,0.6206,0.2954,10.0027,1.6398,-2.9515,0.3483,-0.0684,10.1274,-1.5299,2.7285,-0.8395,2.9793,0.3826,10.3783,-1.2525,0.5971,-0.998621,0,1698651639.7986,90
-0.2324,-1.4877,-0.0997,0.9835,-0.1002,-1.3701,0.9956,0.4906,9.7287,1.6625,-2.8877,0.3614,-0.0545,10.0103,-1.5557,2.6619,-1.0065,2.8355,0.3206,10.1737,-1.2859,0.471,-0.998929,0,1698651639.8085,90
-0.2446,-1.3826,-0.0915,0.9627,-0.0955,-1.0035,1.3508,0.701,9.4051,1.6299,-2.7853,0.3997,-0.0147,9.8464,-1.5512,2.6067,-1.2368,2.5397,0.2409,9.9562,-1.3181,0.3623,-0.999168,0,1698651639.8175,91
-0.2548,-1.3045,-0.0835,0.926,-0.0398,-0.6019,1.6948,0.8334,9.2471,1.5122,-2.629,0.53,0.046,9.6833,-1.5389,2.5432,-1.5648,2.2938,0.1713,9.7437,-1.3251,0.2745,-0.999353,0,1698651639.8282,92
-0.2638,-1.213,-0.0754,0.899,0.1083,-0.1844,1.9987,0.9269,9.1984,1.4062,-2.4122,0.8349,0.123,9.5341,-1.5197,2.4845,-1.9244,2.3354,0.0977,9.5578,-1.2878,0.2522,-0.999497,0,1698651639.8383,93
-0.2717,-1.1022,-0.0672,0.8725,0.1883,0.2252,2.2458,1.0118,9.0994,1.3384,-2.1313,1.2685,0.2135,9.3806,-1.5072,2.4416,-2.3537,2.5262,-0.0056,9.4255,-1.2369,0.2809,-0.99961,0,1698651639.8477,93
-0.2779,-0.9817,-0.0591,0.851,0.3306,0.585,2.4463,1.1101,8.9752,1.3592,-1.8646,1.7741,0.3043,9.2533,-1.5018,2.4174,-2.884,2.5944,-0.1062,9.3456,-1.264,0.332,-0.999697,0,1698651639.8573,94
-0.283,-0.8833,-0.0513,0.8384,0.4156,0.9216,2.5764,1.2105,8.8963,1.3219,-1.6983,2.3517,0.3654,9.1638,-1.481,2.4144,-3.4288,2.4146,-0.1469,9.3015,-1.3013,0.3456,-0.999764,0,1698651639.8681,95
-0.2876,-0.804,-0.0437,0.8066,0.4475,1.2274,2.663,1.1984,8.9997,1.2015,-1.6987,2.7637,0.3839,9.1232,-1.3841,2.3339,-3.5017,2.1037,-0.0455,9.4458,-1.288,0.5122,-0.999817,0,1698651639.8776,96
-0.2918,-0.7275,-0.0365,0.7667,0.4203,1.4862,2.6783,1.1554,9.1407,1.1046,-1.8046,2.9738,0.578,9.0697,-1.3914,2.2514,-3.0164,1.714,0.0315,9.3283,-1.2328,0.5633,-0.999858,0,1698651639.8879,96
-0.295,-0.6476,-0.0295,0.718,0.2815,1.7068,2.6313,1.0735,9.1601,0.9892,-1.8852,2.8634,0.6462,8.9557,-1.4527,2.2691,-2.4494,1.4914,0.0061,9.0411,-1.2359,0.4049,-0.999846,0,1698651639.8983,97
-0.2974,-0.5586,-0.0228,0.6817,0.132,1.8884,2.5259,0.9699,9.2279,0.78,-2.022,2.5485,0.4972,8.9113,-1.5284,2.2465,-1.8641,2.0394,-0.0187,9.0712,-1.3444,0.3503,-0.999407,0,1698651639.9073,98
-0.2988,-0.4706,-0.017,0.6512,-0.0344,1.9971,2.3408,0.8645,9.4016,0.573,-2.0984,2.193,0.4104,8.8768,-1.7187,2.1699,-1.5629,2.6653,-0.0534,9.0167,-1.3835,0.2114,-0.996396,0,1698651639.9175,99
-0.2994,-0.3709,-0.0116,0.6432,-0.2233,2.0278,2.094,0.7512,9.4857,0.5402,-2.0802,1.7414,0.3157,8.8724,-1.8007,2.1283,-1.5616,2.8558,-0.0726,8.9819,-1.3882,0.1968,-0.993719,0,1698651639.9274,99
-0.2994,-0.2792,-0.0066,0.6122,-0.4578,2.0218,1.7898,0.6893,9.5323,0.5061,-2.0404,1.2432,0.2584,8.9302,-1.7993,2.0939,-1.5265,3.1605,-0.108,9.0888,-1.3847,0.3555,-0.994225,0,1698651639.9376,0
-0.2994,-0.2176,-0.0026,0.5374,-0.7277,2.0061,1.4504,0.6664,9.6258,0.3707,-2.0573,0.7829,0.2087,8.9506,-1.7636,2.0551,-1.4046,3.4373,-0.161,9.147,-1.3504,0.4629,-0.995315,0,1698651639.9475,1
-0.2994,-0.1639,0.0009,0.497,-1.0499,1.9717,1.0751,0.6261,9.6697,0.1943,-2.2034,0.3147,0.1454,8.9752,-1.7162,1.9988,-1.1813,3.5576,-0.2201,9.1772,-1.3433,0.5416,-0.996148,0,1698651639.9585,1
-0.2993,-0.1177,0.0046,0.4648,-1.3614,1.8556,0.6779,0.528,9.6028,0.091,-2.3193,-0.2502,0.0801,9.0002,-1.7477,1.9232,-0.9047,3.5966,-0.278,9.187,-1.3933,0.5864,-0.99673,0,1698651639.9676,2
-0.2992,-0.0919,0.0087,0.4359,-1.5591,1.6682,0.2902,0.4165,9.4467,0.0915,-2.2561,-0.5321,0.0677,9.053,-1.8465,1.8723,-0.6413,3.5033,-0.3297,9.1674,-1.503,0.5773,-0.997196,0,1698651639.9774,3
-0.2991,-0.0732,0.0126,0.4475,-1.6931,1.4766,-0.0851,0.2647,9.397,0.0561,-2.0654,-0.5014,0.1032,9.1413,-1.9514,1.8565,-0.4682,3.2629,-0.3367,9.1422,-1.6283,0.5455,-0.997572,0,1698651639.9874,4
-0.299,-0.0558,0.0159,0.4547,-1.8219,1.2792,-0.4618,0.1011,9.3565,0.0259,-1.8875,-0.4733,0.1402,9.1503,-2.0627,1.8405,-0.3764,2.9603,-0.2986,9.1369,-1.7326,0.5717,-0.997855,0,1698651639.9977,4
-0.2989,-0.0429,0.0194,0.4512,-1.9721,1.0603,-0.82,-0.0236,9.3347,0.0089,-1.6445,-0.4438,0.168,9.1135,-2.1455,1.8425,-0.2531,2.6495,-0.2622,9.1677,-1.8366,0.6392,-0.998016,0,1698651640.0077,5
-0.2988,-0.0242,0.0235,0.4509,-2.1179,0.8536,-1.1324,-0.1257,9.2702,-0.0078,-1.2811,-0.2078,0.2204,9.1717,-2.2196,1.8548,0.0421,2.4293,-0.2672,9.2136,-1.935,0.7028,-0.997783,0,1698651640.0179,6
-0.2987,-0.0087,0.0284,0.4596,-2.168,0.6514,-1.3639,-0.2225,9.0728,0.0126,-0.9307,0.0888,0.2985,9.2314,-2.3267,1.8563,0.3489,2.2225,-0.2949,9.2559,-2.0136,0.7333,-0.996436,0,1698651640.0279,7
-0.2987,-0.0055,0.0335,0.4617,-2.0765,0.4388,-1.5079,-0.2872,9.0042,0.0806,-0.6772,0.0448,0.3848,9.1882,-2.3427,1.8018,0.4994,2.1607,-0.3335,9.3219,-1.9835,0.7727,-0.994523,0,1698651640.0373,7
-0.2987,-0.0043,0.0383,0.446,-1.9143,0.2439,-1.5849,-0.3153,9.0394,0.1633,-0.7573,-0.4087,0.387,9.2151,-2.1529,1.7243,0.5388,2.2542,-0.3848,9.4213,-1.8101,0.7934,-0.993711,0,1698651640.0475,8
-0.2986,-0.0021,0.0433,0.4378,-1.7695,0.1062,-1.5858,-0.3141,9.0462,0.2052,-1.0214,-0.933,0.2958,9.3359,-1.9365,1.7619,0.5353,2.1666,-0.4195,9.5236,-1.625,0.7897,-0.993998,0,1698651640.0579,9
-0.2984,0.0025,0.0485,0.4435,-1.6154,0.0333,-1.515,-0.2787,9.0432,0.2243,-1.144,-1.1554,0.1875,9.4437,-1.8218,1.8555,0.5283,1.837,-0.443,9.601,-1.4686,0.8347,-0.994317,0,1698651640.0673,9
-0.2981,0.0187,0.0529,0.4318,-1.4163,0.015,-1.3748,-0.1812,9.2645,0.1774,-1.1522,-1.1432,0.0813,9.5226,-1.7392,1.9252,0.4599,1.2946,-0.4503,9.6811,-1.3485,0.9076,-0.993988,0,1698651640.0773,10
-0.2972,0.0467,0.0562,0.4138,-1.18,0.0119,-1.2215,-0.0371,9.5439,0.1369,-1.0282,-1.0877,0.0072,9.6103,-1.7188,1.9832,0.4084,0.6926,-0.4303,9.7911,-1.3095,1.0019,-0.989883,0,1698651640.0874,11
-0.2956,0.077,0.0591,0.4159,-1.0228,0.0938,-1.0957,0.1433,9.4589,0.1443,-0.8382,-1.0182,-0.029,9.7164,-1.7557,2.03,0.4826,0.1152,-0.3994,9.8983,-1.3403,1.0583,-0.962123,0,1698651640.0977,12
-0.2936,0.1079,0.0619,0.3974,-0.9774,0.2461,-0.9749,0.3487,9.3805,0.1481,-0.6599,-0.9761,-0.04,9.7876,-1.8022,2.0686,0.6646,-0.4484,-0.3832,9.9494,-1.4009,1.0217,-0.894119,0,1698651640.1074,12
-0.2912,0.1399,0.0643,0.3653,-0.8535,0.3516,-0.847,0.4825,9.4528,0.2115,-0.5155,-1.0465,-0.0265,9.8346,-1.8413,2.0926,0.8273,-1.0396,-0.3731,9.9608,-1.4662,0.9221,-0.862098,0,1698651640.1174,13
-0.2889,0.1579,0.0661,0.3276,-0.6064,0.4685,-0.7,0.5608,9.4507,0.3059,-0.353,-1.2026,0.0173,9.8737,-1.8751,2.114,0.8804,-1.6351,-0.361,9.9708,-1.5302,0.8039,-0.867994,0,1698651640.1274,14
-0.2873,0.1448,0.0671,0.2672,-0.4452,0.682,-0.5559,0.6836,9.4955,0.3082,-0.1646,-1.2054,0.0581,9.9213,-1.8923,2.1399,0.833,-2.0176,-0.3984,9.9998,-1.6003,0.7124,-0.840827,0,1698651640.1377,14
-0.2869,0.1154,0.0678,0.2106,-0.4435,0.9543,-0.4407,0.8076,9.6575,0.1664,0.0286,-0.9119,0.0591,9.966,-1.9035,2.1502,0.6675,-2.099,-0.4548,10.0721,-1.6371,0.6289,-0.833634,0,1698651640.1479,15
-0.287,0.0887,0.0686,0.1717,-0.3706,1.217,-0.3358,0.8858,9.7043,-0.0314,0.2153,-0.5169,0.025,9.9552,-1.9202,2.1039,0.3916,-1.997,-0.4943,10.1393,-1.6213,0.523,-0.863949,0,1698651640.1582,16
-0.2871,0.0668,0.0695,0.1462,-0.1802,1.4952,-0.2074,0.9211,9.6158,-0.2538,0.3127,-0.3064,-0.039,9.863,-1.9164,2.0116,0.0358,-1.9433,-0.5412,10.1828,-1.582,0.4292,-0.870959,0,1698651640.168,17
-0.2872,0.0499,0.0712,0.1631,0.0026,1.816,-0.0711,1.003,9.5388,-0.4775,0.2792,-0.4266,-0.1305,9.771,-1.9217,1.935,-0.3667,-2.2825,-0.5887,10.2375,-1.5606,0.4269,-0.657167,0,1698651640.1778,17
-0.2871,0.0493,0.0742,0.2047,0.1821,2.182,0.0561,1.103,9.5495,-0.6251,0.1969,-0.9061,-0.2391,9.726,-1.9755,1.8534,-0.664,-3.0598,-0.6469,10.3121,-1.6097,0.4765,-0.290568,0,1698651640.1873,18
-0.2868,0.0598,0.078,0.2515,0.2542,2.5617,0.1736,1.1232,9.796,-0.7552,0.1935,-1.5776,-0.3737,9.733,-2.0328,1.7483,-0.7262,-4.1161,-0.699,10.3986,-1.6631,0.5043,-0.002426,0,1698651640.1973,19
-0.2853,0.1037,0.0817,0.2727,0.3238,2.8379,0.2479,1.0833,10.1932,-0.8972,0.1329,-2.29,-0.5097,9.8759,-2.0958,1.6453,-0.5555,-5.1155,-0.7862,10.5481,-1.6909,0.4649,0.221384,0,1698651640.2075,20
-0.2809,0.2079,0.0843,0.2379,0.4444,3.0328,0.2723,0.9243,10.5365,-0.9407,-0.0999,-3.0761,-0.6393,10.0755,-2.1744,1.5861,-0.2456,-5.7409,-0.9818,10.699,-1.7553,0.3539,0.39522,0,1698651640.2175,20
-0.272,0.403,0.085,0.1819,0.4264,3.2021,0.2334,0.6589,10.7289,-0.8536,-0.3694,-3.909,-0.7638,10.2742,-2.2439,1.5786,0.4297,-5.6634,-1.3835,10.8795,-1.8644,0.3489,0.529676,0,1698651640.2278,21
-0.2589,0.7019,0.0849,0.1348,0.3826,3.3021,0.1614,0.3586,10.8489,-0.6419,-0.5352,-4.7452,-0.8588,10.467,-2.3044,1.5899,1.3794,-5.2402,-1.8625,11.0714,-1.9138,0.3525,0.622231,0,1698651640.2372,22
-0.2434,0.924,0.0848,0.0881,0.4653,3.3346,0.1506,-0.028,10.8681,-0.3356,-0.5251,-5.4944,-0.9027,10.6731,-2.3404,1.6361,2.077,-5.2004,-2.1791,11.1594,-1.8918,0.1447,0.578325,0,1698651640.2475,22
-0.227,1.0688,0.0845,0.033,0.6352,3.2934,0.2164,-0.5208,10.868,0.048,-0.3869,-6.0439,-0.9139,10.929,-2.3112,1.6715,2.2423,-5.408,-2.3501,11.2711,-1.8234,-0.1121,0.35439,0,1698651640.2577,23
-0.2116,1.2128,0.0831,-0.034,0.8064,3.0773,0.3245,-1.0919,10.6191,0.5584,-0.5131,-6.9147,-0.9106,11.1888,-2.1171,1.5602,1.7928,-5.416,-2.4513,11.53,-1.5599,-0.2378,0.073548,0,1698651640.2683,24
-0.1978,1.2353,0.0792,-0.1612,0.8618,2.6938,0.4367,-1.6513,10.5632,0.9611,-1.2212,-8.0607,-1.0052,11.3485,-1.8194,1.5433,0.8711,-5.065,-2.5521,11.8903,-1.2232,-0.3133,-0.166143,0,1698651640.2773,25
-0.1867,1.1586,0.072,-0.333,0.9151,2.3227,0.58,-2.1806,11.0476,1.2094,-2.0968,-8.546,-1.2959,11.4637,-1.5425,1.6373,-0.1951,-4.7925,-2.6194,12.12,-0.9369,-0.3083,-0.352319,0,1698651640.2882,25
-0.1783,1.051,0.0618,-0.5407,0.9403,1.9134,0.7545,-2.5389,11.3838,1.4044,-2.5467,-8.2003,-1.6786,11.5983,-1.2852,1.6082,-0.9526,-4.3191,-2.7253,12.2463,-0.6059,-0.1085,-0.496927,0,1698651640.2973,26
-0.1728,0.8945,0.0495,-0.7212,0.7093,1.4574,0.8729,-2.4574,11.3797,1.5658,-2.7011,-7.2108,-2.1352,11.6478,-1.0668,1.5621,-1.2537,-3.6251,-2.9447,12.2682,-0.3115,0.0972,-0.609248,0,1698651640.3081,27
-0.1711,0.7145,0.0354,-0.8985,0.4379,1.036,0.9615,-2.2124,11.3552,1.5959,-2.7154,-5.7162,-2.6117,11.5521,-0.8761,1.5018,-1.3521,-3.2999,-3.1518,12.0337,-0.0902,0.1667,-0.696492,0,1698651640.3173,28
-0.1715,0.5549,0.0196,-1.1295,0.5807,0.6285,1.0669,-2.022,11.3768,1.6269,-2.4665,-4.0057,-3.0201,11.3297,-0.7344,1.4479,-1.5657,-3.1598,-3.2394,11.6265,0.0979,0.1476,-0.764256,0,1698651640.3277,28
-0.1721,0.4213,0.0025,-1.3461,1.0069,0.1237,1.1556,-1.7609,11.1685,1.7682,-2.1147,-2.3217,-3.3306,11.1182,-0.6845,1.4732,-2.0896,-3.1311,-3.177,11.1277,0.1722,0.0676,-0.816891,0,1698651640.3378,29
-0.1723,0.3342,-0.0156,-1.5047,1.0951,-0.2011,1.1921,-1.3434,10.864,1.8313,-1.6974,-0.6251,-3.5206,10.8667,-0.6267,1.5991,-2.5519,-3.1301,-3.0766,10.6117,0.1887,0.0132,-0.857774,0,1698651640.3477,30
-0.1722,0.2715,-0.034,-1.572,0.8534,-0.2242,1.143,-0.8435,10.4963,1.9013,-1.1713,1.0293,-3.5693,10.5576,-0.5664,1.7919,-2.5496,-2.9282,-3.0233,10.1507,0.2218,0.0493,-0.889529,0,1698651640.3575,30
-0.1718,0.221,-0.0522,-1.6432,0.6845,-0.277,1.0519,-0.4588,10.293,1.9341,-0.5582,2.374,-3.4828,10.2996,-0.5163,2.0218,-2.3876,-2.6274,-2.953,9.7767,0.2593,0.0883,-0.914194,0,1698651640.3679,31
-0.1706,0.1999,-0.0703,-1.7229,0.5063,-0.3649,0.896,-0.1735,10.1359,2.0544,-0.0547,3.346,-3.326,10.127,-0.4525,2.2653,-2.3317,-2.4466,-2.8097,9.5131,0.2991,0.0964,-0.933352,0,1698651640.3774,32
-0.1683,0.2032,-0.0885,-1.7333,0.2078,-0.3028,0.6266,0.1215,9.951,2.0164,0.2495,3.7312,-3.0961,10.0656,-0.4105,2.4472,-2.1835,-2.3896,-2.6226,9.3512,0.2844,0.1377,-0.948232,0,1698651640.3874,33
-0.1643,0.261,-0.1071,-1.784,-0.0906,-0.1557,0.2657,0.3628,9.8029,1.822,0.5019,3.5105,-2.8041,10.0484,-0.3794,2.5618,-1.8024,-2.3556,-2.4014,9.2719,0.2368,0.1783,-0.95979,0,1698651640.3979,33
-0.1579,0.3595,-0.1261,-1.871,-0.4178,-0.0142,-0.1425,0.5504,9.675,1.6952,0.7645,2.9454,-2.4683,10.0353,-0.354,2.6064,-1.1647,-2.3258,-2.1878,9.2729,0.214,0.1545,-0.968768,0,1698651640.4079,34
-0.1501,0.437,-0.1449,-1.8985,-0.6114,0.1503,-0.52,0.6603,9.6879,1.615,1.023,2.2056,-2.1162,10.0345,-0.2965,2.5836,-0.4334,-2.3154,-1.9912,9.3565,0.2607,0.0949,-0.916949,0,1698651640.4182,35
-0.1417,0.537,-0.1633,-1.9123,-0.6408,0.2678,-0.8627,0.5856,9.6648,1.6596,1.1547,1.5825,-1.8232,10.0934,-0.2166,2.5488,0.1816,-2.258,-1.7908,9.507,0.3914,0.0518,-0.771792,0,1698651640.4278,36
-0.1332,0.6409,-0.181,-1.9081,-0.6815,0.3863,-1.1382,0.3754,9.6218,1.6779,1.1249,1.2203,-1.6049,10.2127,-0.1128,2.4964,0.7504,-2.0275,-1.6284,9.689,0.5543,0.0127,-0.651833,0,1698651640.4372,36
-0.1251,0.6995,-0.1977,-1.8896,-0.6731,0.4903,-1.3276,0.0623,9.7118,1.6464,1.0941,0.9322,-1.3945,10.2816,0.0063,2.4156,1.3115,-1.6287,-1.5209,9.8478,0.7068,-0.0588,-0.6614,0,1698651640.4479,37
-0.1169,0.7292,-0.2131,-1.8606,-0.5507,0.5209,-1.478,-0.3544,9.8333,1.5803,1.0506,0.7144,-1.1944,10.2843,0.1231,2.3448,1.7243,-1.2081,-1.4213,9.9268,0.845,-0.1844,-0.734782,0,1698651640.4572,38
-0.1088,0.718,-0.2274,-1.8048,-0.4462,0.5181,-1.6102,-0.8109,9.952,1.4231,0.9913,0.6099,-1.0365,10.2506,0.2512,2.2764,1.8805,-0.907,-1.3183,9.9681,0.9497,-0.3327,-0.7939,0,1698651640.4675,38
-0.1012,0.7055,-0.2409,-1.6915,-0.325,0.4547,-1.724,-1.2331,9.9258,1.3237,0.9358,0.5169,-0.901,10.1683,0.3478,2.1731,1.8715,-0.7447,-1.2511,10.0117,1.0022,-0.4578,-0.839554,0,1698651640.4773,39
-0.094,0.7131,-0.2537,-1.5798,-0.1124,0.2733,-1.8311,-1.6011,9.6863,1.3451,0.8612,0.4548,-0.7915,10.0362,0.3798,2.042,1.775,-0.6306,-1.21,9.9993,1.0191,-0.5732,-0.863556,0,1698651640.4873,40
-0.0877,0.709,-0.2658,-1.5308,0.0041,0.0531,-1.9415,-1.8239,9.5398,1.3024,0.7964,0.4706,-0.7226,9.8909,0.4341,1.8978,1.6199,-0.4712,-1.19,9.9298,1.0414,-0.6841,-0.813993,0,1698651640.4982,41
-0.0822,0.7008,-0.2773,-1.488,0.0188,-0.1843,-2.0452,-1.9483,9.4736,1.2067,0.9182,0.689,-0.6939,9.7905,0.5201,1.7328,1.4449,-0.2656,-1.1838,9.8373,1.0739,-0.7965,-0.681224,0,1698651640.5081,41
-0.0774,0.6621,-0.2883,-1.4593,0.0268,-0.4651,-2.1292,-2.0641,9.3508,1.1094,1.0699,0.9933,-0.7073,9.7348,0.5558,1.6281,1.3115,-0.0548,-1.1927,9.7388,1.0965,-0.886,-0.541154,0,1698651640.518,42
-0.0738,0.5809,-0.2987,-1.3939,0.0492,-0.7828,-2.1867,-2.1357,9.3434,1.0023,1.0744,1.2646,-0.7612,9.6698,0.5566,1.5968,1.2148,0.1354,-1.1961,9.632,1.1073,-0.9498,-0.43249,0,1698651640.5274,43
-0.0712,0.5051,-0.3087,-1.3178,0.0393,-1.114,-2.2323,-2.2089,9.4215,0.8768,1.1052,1.5793,-0.8355,9.6084,0.5623,1.6003,1.1149,0.3308,-1.1767,9.5379,1.1136,-1.0133,-0.360665,0,1698651640.5378,43
-0.0691,0.4502,-0.3181,-1.2651,-0.0561,-1.4335,-2.283,-2.2088,9.4627,0.7155,1.0737,1.9124,-0.8949,9.5596,0.559,1.6143,1.0382,0.5457,-1.1326,9.456,1.0974,-1.0648,-0.353346,0,1698651640.5479,44
-0.067,0.4067,-0.3268,-1.1932,-0.1166,-1.7515,-2.3079,-2.1674,9.3867,0.6164,1.0194,2.1199,-0.9452,9.4817,0.5374,1.6128,1.0178,0.6853,-1.0659,9.3501,1.0487,-1.1085,-0.409335,0,1698651640.5575,45
-0.0653,0.3526,-0.3346,-1.1079,-0.0911,-2.053,-2.2983,-2.0953,9.1572,0.6038,1.0454,2.3238,-0.9784,9.4101,0.5127,1.5996,1.0087,0.7068,-0.9895,9.2197,0.9821,-1.1406,-0.508141,0,1698651640.5677,46
-0.0639,0.3092,-0.3412,-0.9879,-0.1694,-2.294,-2.2857,-1.9092,8.9965,0.5655,1.0954,2.5435,-0.9743,9.3538,0.4886,1.5886,0.9838,0.7517,-0.9011,9.0931,0.9148,-1.1601,-0.61598,0,1698651640.5777,46
-0.0624,0.2732,-0.3466,-0.8545,-0.2267,-2.5324,-2.2554,-1.7272,8.8806,0.5498,1.096,2.6306,-0.9388,9.2956,0.4862,1.5881,0.9466,0.8163,-0.7924,8.9755,0.8577,-1.2047,-0.701593,0,1698651640.5878,47
-0.0603,0.2469,-0.3514,-0.7544,-0.2534,-2.749,-2.2149,-1.5485,8.8285,0.4824,1.1108,2.7383,-0.8771,9.2798,0.4817,1.5908,0.881,0.8419,-0.6679,8.8892,0.8091,-1.2498,-0.768213,0,1698651640.598,48
-0.0581,0.2411,-0.3551,-0.6556,-0.2997,-2.908,-2.1178,-1.5034,8.8676,0.3608,1.1974,2.8075,-0.7968,9.2774,0.4499,1.604,0.79,0.8693,-0.5338,8.8701,0.7809,-1.2656,-0.819964,0,1698651640.6077,49
-0.0561,0.2391,-0.3567,-0.5285,-0.247,-3.0399,-1.9163,-1.5649,8.8721,0.2601,1.1828,2.7291,-0.6876,9.3071,0.4091,1.6096,0.7134,0.8472,-0.3844,8.895,0.7471,-1.2869,-0.860161,0,1698651640.6176,49
-0.054,0.2378,-0.3568,-0.4111,-0.2163,-3.0989,-1.6864,-1.5173,8.8441,0.19,1.0104,2.6495,-0.5669,9.3576,0.3996,1.6054,0.7016,0.7883,-0.2291,8.9406,0.7141,-1.3339,-0.891383,0,1698651640.6277,50
-0.0512,0.2483,-0.3566,-0.3354,-0.414,-3.0741,-1.5122,-1.2798,8.8942,0.0856,0.8561,2.7198,-0.4673,9.3884,0.4364,1.6049,0.7717,0.7953,-0.0898,9.0056,0.7151,-1.3857,-0.915634,0,1698651640.6377,51
-0.0471,0.2925,-0.3564,-0.2677,-0.7389,-3.0266,-1.3683,-0.955,8.9454,-0.0563,0.8793,2.8519,-0.3941,9.4208,0.4804,1.598,0.9574,1.1579,0.0158,9.0735,0.7304,-1.4371,-0.934407,0,1698651640.6474,51
-0.0416,0.3731,-0.3562,-0.1854,-0.8617,-3.0213,-1.1679,-0.7437,8.8954,-0.0199,1.1096,2.963,-0.3313,9.4051,0.5261,1.582,1.1561,1.4241,0.1226,9.0659,0.7412,-1.5049,-0.946996,0,1698651640.6579,52
-0.0357,0.4432,-0.3558,-0.1257,-0.8642,-2.9464,-0.8683,-0.6853,8.8742,0.0957,1.4487,3.0519,-0.2766,9.3523,0.5894,1.5658,1.2798,1.2892,0.2243,9.0404,0.7555,-1.5393,-0.954637,0,1698651640.6674,53
-0.03,0.4886,-0.3544,-0.0442,-0.8192,-2.89,-0.5409,-0.6213,8.9403,0.1088,1.597,3.1329,-0.2562,9.3489,0.653,1.5781,1.3018,1.2364,0.3221,9.0941,0.8061,-1.5543,-0.960567,0,1698651640.6777,54
-0.0238,0.5343,-0.3514,0.0861,-1.0272,-2.7643,-0.2756,-0.4596,8.5402,0.0532,1.4983,3.1233,-0.2413,9.3864,0.7131,1.6066,1.3239,1.1588,0.4295,9.1695,0.8602,-1.593,-0.965427,0,1698651640.6875,54
-0.0176,0.5805,-0.3466,0.1994,-1.3242,-2.619,-0.0082,-0.3709,8.1092,0.0568,1.3339,2.8748,-0.2066,9.4091,0.7801,1.6186,1.4136,1.0073,0.5317,9.261,0.9209,-1.604,-0.968839,0,1698651640.6978,55
-0.0115,0.5965,-0.3399,0.3321,-1.3521,-2.6076,0.2814,-0.4359,7.9984,0.1895,1.0545,2.4593,-0.161,9.4182,0.8422,1.5935,1.4304,0.7592,0.6239,9.3128,0.9926,-1.6185,-0.97303,0,1698651640.708,56
-0.005,0.6014,-0.3315,0.4554,-1.2911,-2.5228,0.5114,-0.4682,7.7757,0.3305,0.6559,2.1621,-0.1034,9.4421,0.8913,1.5549,1.4102,0.2393,0.7031,9.2701,1.0098,-1.669,-0.97864,0,1698651640.7199,57
0.0024,0.6138,-0.3215,0.5188,-1.1773,-2.4587,0.6781,-0.4727,7.6856,0.4748,0.2782,2.0958,-0.0331,9.4326,0.8827,1.5485,1.3084,-0.1807,0.7681,9.1926,0.9743,-1.6868,-0.983401,0,1698651640.7371,57
0.0122,0.6227,-0.3093,0.5804,-0.7546,-2.3375,0.7384,-0.5241,8.0746,0.6796,-0.0341,2.164,0.1894,9.403,0.7309,1.6445,0.1643,-0.3261,1.0314,9.1438,0.8567,-1.5543,-0.987107,0,1698651640.7481,58
0.0213,0.631,-0.2984,0.6211,-0.545,-2.267,0.7053,-0.669,8.211,0.705,-0.095,2.1594,0.3025,9.4143,0.6448,1.6694,-0.4109,-0.2398,1.1356,9.1827,0.8121,-1.4077,-0.989986,0,1698651640.7582,59
0.027,0.5999,-0.2917,0.6004,-0.3293,-2.1995,0.6626,-0.7928,8.5091,0.6411,-0.0988,2.0297,0.4416,9.473,0.5621,1.7086,-0.7886,-0.1208,1.2003,9.2723,0.7365,-1.2947,-0.992222,0,1698651640.768,59
0.0318,0.5553,-0.2879,0.531,-0.1618,-2.0985,0.6072,-0.8355,8.8617,0.5664,-0.0669,1.8438,0.5999,9.6153,0.4559,1.7566,-0.9875,0.0049,1.2446,9.437,0.6342,-1.1946,-0.993958,0,1698651640.7789,60
0.0361,0.5167,-0.2863,0.4371,0.0033,-1.9638,0.5531,-0.8427,9.1209,0.5599,-0.0386,1.6525,0.7526,9.8085,0.3147,1.7739,-0.9894,0.1408,1.2662,9.6564,0.5085,-1.1069,-0.995307,0,1698651640.7892,61
0.0396,0.4739,-0.2859,0.3428,0.117,-1.7978,0.5137,-0.7887,9.3775,0.5632,-0.0252,1.4639,0.8841,10,0.1614,1.7646,-0.8817,0.2567,1.2839,9.8757,0.3863,-1.0456,-0.996355,0,1698651640.7992,62
0.0422,0.4373,-0.2861,0.2503,0.1116,-1.6075,0.4831,-0.6744,9.6108,0.501,-0.0089,1.2569,0.9964,10.1693,0.018,1.7416,-0.724,0.4523,1.2993,10.0714,0.2821,-0.9901,-0.997169,0,1698651640.8088,62
0.0443,0.3924,-0.2868,0.1635,0.0733,-1.4111,0.4414,-0.6411,9.6351,0.3311,0.0166,0.9802,1.0913,10.2871,-0.0931,1.7216,-0.4362,0.7406,1.2934,10.2058,0.1933,-0.9561,-0.997801,0,1698651640.8188,63
0.0472,0.3857,-0.289,0.0412,0.0751,-1.1955,0.4115,-0.6487,9.6995,0.0818,0.062,0.6349,1.1838,10.3202,-0.1557,1.7098,-0.0124,0.8819,1.2691,10.2324,0.1182,-0.9717,-0.998292,0,1698651640.8292,64
0.0518,0.4322,-0.2933,-0.0968,0.2529,-1.0315,0.3994,-0.7209,9.8154,-0.0901,0.1399,0.238,1.2811,10.2782,-0.1943,1.687,0.4302,0.8288,1.2606,10.1843,0.0599,-1.0258,-0.998668,0,1698651640.8386,64
0.0573,0.4653,-0.2987,-0.2008,0.472,-0.9407,0.367,-0.9229,9.7489,-0.2339,0.237,-0.1401,1.3636,10.2552,-0.2123,1.6816,0.8216,0.6786,1.2658,10.1866,0.0165,-1.0835,-0.998916,0,1698651640.8487,65
0.0625,0.4663,-0.3031,-0.2504,0.6157,-0.814,0.393,-1.1841,9.7675,-0.4286,0.384,-0.4739,1.4174,10.3175,-0.183,1.733,1.1129,0.394,1.31,10.2984,0.0007,-1.1412,-0.997112,0,1698651640.8588,66
0.0673,0.4495,-0.3057,-0.2298,0.7035,-0.7752,0.4456,-1.4796,9.956,-0.5377,0.6081,-0.8047,1.4507,10.4672,-0.1383,1.7999,1.3766,0.0417,1.3963,10.5158,-0.0001,-1.1804,-0.993183,0,1698651640.8683,67
0.0723,0.4494,-0.3072,-0.2028,0.7342,-0.8447,0.4378,-1.7218,10.2095,-0.6465,0.824,-1.1103,1.4578,10.6648,-0.1076,1.8281,1.7485,-0.3496,1.4795,10.7941,0.0027,-1.1799,-0.989752,0,1698651640.8773,67
0.0774,0.4649,-0.3075,-0.159,0.8193,-0.9363,0.4105,-1.9454,10.4025,-0.7227,0.9618,-1.3791,1.419,10.8094,-0.0859,1.8117,2.2589,-0.7583,1.5305,11.0355,0.0389,-1.1933,-0.98746,0,1698651640.8879,68
0.0816,0.4546,-0.3072,-0.1104,0.9187,-1.0704,0.3782,-2.153,10.6459,-0.7377,1.039,-1.5922,1.3088,10.9255,-0.0597,1.8183,2.8701,-1.2163,1.5735,11.2344,0.0985,-1.254,-0.983866,0,1698651640.8982,69
0.0852,0.4279,-0.3071,-0.0633,0.9883,-1.2351,0.3113,-2.2317,10.9017,-0.7083,1.1365,-1.7765,1.1175,11.0701,-0.0046,1.8552,3.4957,-1.6608,1.6231,11.4219,0.1419,-1.3183,-0.968056,0,1698651640.9072,70
0.0886,0.3891,-0.3066,-0.0019,1.0423,-1.3954,0.2057,-2.1755,11.1398,-0.5996,1.0648,-1.7679,0.8948,11.3087,0.0617,1.8574,4.0992,-2.2071,1.6752,11.5578,0.124,-1.3455,-0.937393,0,1698651640.9175,70
0.0914,0.3472,-0.3052,0.0547,0.9845,-1.4654,0.0734,-1.9718,11.4457,-0.4211,0.8787,-1.6616,0.674,11.6393,0.1065,1.9251,4.4112,-2.9654,1.7311,11.7457,0.1513,-1.3802,-0.894162,0,1698651640.9274,71
0.0931,0.2967,-0.3022,0.1214,0.9482,-1.5266,-0.0209,-1.6858,11.6933,-0.1053,0.7844,-1.5832,0.4532,11.8769,0.1026,2.0331,4.3024,-3.598,1.8375,11.9775,0.1679,-1.4412,-0.869085,0,1698651640.9384,72
0.0934,0.2293,-0.2979,0.1934,0.995,-1.4778,-0.0659,-1.3171,11.5948,0.275,0.7845,-1.3962,0.2774,11.976,0.0311,2.1257,4.067,-3.918,1.8734,12.0979,0.0261,-1.516,-0.878307,0,1698651640.9487,72
0.0933,0.181,-0.2939,0.228,1.0526,-1.2346,-0.1146,-0.9263,11.3536,0.6329,0.8451,-1.1624,0.1834,11.9176,-0.0957,2.2394,3.8084,-4.1469,1.827,11.9907,-0.1437,-1.5729,-0.891427,0,1698651640.9588,73
0.0932,0.1298,-0.2914,0.22,1.1937,-0.9561,-0.1839,-0.6441,11.209,0.9433,0.887,-1.0429,0.1522,11.7507,-0.2566,2.2921,3.5837,-4.1952,1.7655,11.7206,-0.29,-1.5801,-0.80393,0,1698651640.9681,74
0.0926,0.0833,-0.2901,0.1894,1.4064,-0.6521,-0.2897,-0.3683,10.7939,1.2838,0.9392,-1.1453,0.1842,11.5433,-0.4026,2.3341,3.3656,-3.7913,1.5898,11.4488,-0.3814,-1.6122,-0.558248,0,1698651640.9772,75
0.0908,0.0364,-0.2885,0.1871,1.488,-0.335,-0.3591,-0.1251,10.3614,1.5528,1.0444,-1.3211,0.273,11.3132,-0.4628,2.4136,3.054,-3.3327,1.3452,11.2227,-0.402,-1.647,-0.261093,0,1698651640.9882,75
0.087,-0.0833,-0.2844,0.2723,1.4884,-0.0239,-0.2989,0.0319,10.1337,1.6591,1.1961,-1.5523,0.4016,11.1276,-0.4372,2.5204,2.7514,-2.8274,1.1066,11.0313,-0.3834,-1.6583,-0.008903,0,1698651640.9975,76
0.0801,-0.305,-0.2768,0.4129,1.6217,0.2816,-0.0927,0.0828,9.9731,1.8277,1.2849,-1.8298,0.5585,10.9649,-0.359,2.6537,2.4524,-2.2355,0.9213,10.8322,-0.3132,-1.6724,0.182848,0,1698651641.0083,77
0.0699,-0.5321,-0.2665,0.5908,1.7115,0.5385,0.1527,0.1028,10.0911,1.9074,1.2925,-1.973,0.7026,10.8437,-0.2788,2.8168,2.0634,-1.7314,0.8055,10.6783,-0.2532,-1.6769,0.346359,0,1698651641.0181,78
0.0574,-0.7367,-0.2552,0.7436,1.8128,0.6861,0.402,-0.011,10.164,1.977,1.1988,-1.8975,0.8205,10.7353,-0.2055,2.9704,1.5874,-1.1166,0.7487,10.5556,-0.1744,-1.6117,0.490575,0,1698651641.0274,78
0.0435,-0.9091,-0.2444,0.8039,1.8626,0.7982,0.6264,-0.1278,10.0073,2.0544,1.0271,-1.6344,0.9129,10.564,-0.1154,3.0684,1.0072,-0.3323,0.714,10.3939,-0.0733,-1.4978,0.603674,0,1698651641.0378,79
0.0287,-1.0123,-0.235,0.8194,1.8245,0.8844,0.7581,-0.1939,10.0431,2.0035,0.8008,-1.2468,0.9626,10.338,-0.0693,3.1298,0.2404,0.576,0.699,10.2174,-0.0228,-1.4189,0.691501,0,1698651641.0473,80
0.0129,-1.153,-0.2266,0.8256,1.7941,0.9224,0.8587,-0.381,10.1911,1.9395,0.5245,-0.7165,0.973,10.1007,-0.0879,3.1628,-0.7182,1.544,0.7376,10.0655,-0.0146,-1.2969,0.663061,0,1698651641.0574,80
-0.004,-1.3241,-0.2187,0.8258,1.675,0.9638,0.9283,-0.5319,10.0784,1.9536,0.3057,-0.1546,0.9811,9.8647,-0.1415,3.1887,-1.7713,2.5805,0.8903,9.905,-0.0368,-1.1041,0.417974,0,1698651641.0673,81
-0.0216,-1.4295,-0.2109,0.8045,1.4223,0.9832,0.9158,-0.6387,9.9211,1.9819,0.1195,0.3057,0.9763,9.6606,-0.2255,3.23,-2.6557,3.3651,1.0601,9.7687,-0.0849,-0.8466,0.101392,0,1698651641.0773,82
-0.0399,-1.5092,-0.2029,0.814,1.0607,0.9343,0.8193,-0.7447,9.8213,1.9953,-0.1078,0.6461,0.9291,9.5091,-0.328,3.2569,-3.1655,3.9217,1.1365,9.7127,-0.1804,-0.5192,-0.144516,0,1698651641.0872,83
-0.0583,-1.6004,-0.1944,0.8565,0.6614,0.8086,0.6335,-0.7783,9.8035,1.936,-0.3431,0.7044,0.8609,9.4063,-0.4439,3.2613,-3.4293,4.3114,1.1508,9.7711,-0.3174,-0.1926,-0.33552,0,1698651641.0975,83
-0.0763,-1.6843,-0.1858,0.8727,0.2123,0.6249,0.3801,-0.7839,9.8716,1.7913,-0.6035,0.586,0.7867,9.3751,-0.5775,3.2417,-3.3581,4.3227,1.1098,9.8814,-0.4421,0.0912,-0.483879,0,1698651641.1075,84
-0.0946,-1.7644,-0.1773,0.8793,-0.1126,0.4285,0.1168,-0.7652,9.943,1.7225,-0.879,0.5034,0.7017,9.3723,-0.7249,3.1714,-2.8648,4.0392,0.9902,9.9398,-0.5482,0.3028,-0.599113,0,1698651641.1173,85
-0.1135,-1.8024,-0.1692,0.8859,-0.3633,0.264,-0.1005,-0.5842,10.0364,1.668,-1.1185,0.5296,0.6051,9.4193,-0.8724,3.1347,-2.1765,3.5837,0.796,9.9942,-0.6435,0.4528,-0.688619,0,1698651641.1274,86
-0.1331,-1.8003,-0.1615,0.8762,-0.5964,0.1474,-0.2258,-0.3292,10.0491,1.7031,-1.273,0.6147,0.7302,9.5456,-1.0173,3.157,-1.4903,3.2265,0.6118,10.0929,-0.7311,0.5604,-0.758136,0,1698651641.1374,86
-0.1529,-1.8053,-0.1545,0.8273,-0.7629,0.0678,-0.2558,-0.0983,10.2284,1.801,-1.3556,0.7515,0.8224,9.7447,-1.1402,3.1719,-0.9172,3.1025,0.4858,10.2564,-0.7826,0.6312,-0.812116,0,1698651641.1476,87
-0.1725,-1.8024,-0.1477,0.7983,-0.9707,0.0342,-0.4095,0.0621,10.376,1.8768,-1.412,0.9805,0.6749,9.979,-1.2143,3.1664,-0.4388,3.3351,0.434,10.4532,-0.7817,0.6766,-0.853987,0,1698651641.158,88
-0.1912,-1.7803,-0.141,0.7648,-1.069,0.0651,-0.4266,0.1204,10.2444,1.9455,-1.3988,1.149,0.5902,10.0894,-1.2382,3.1164,0.0674,3.8251,0.3682,10.5242,-0.7564,0.6915,-0.886129,0,1698651641.1674,88
-0.2089,-1.7583,-0.1348,0.7244,-1.1428,0.1403,-0.1374,0.1555,10.1307,1.9206,-1.3203,1.2057,0.5517,10.0484,-1.2308,3.0203,0.4904,4.2807,0.2369,10.4431,-0.7395,0.6584,-0.908609,0,1698651641.1776,89
-0.2251,-1.7228,-0.1282,0.7332,-1.2189,0.2524,0.1844,0.2071,9.9011,1.8485,-1.2278,1.168,0.5345,9.9198,-1.208,2.9094,0.7176,4.5733,0.0847,10.2732,-0.7161,0.6341,-0.910552,0,1698651641.1882,90
-0.2398,-1.6557,-0.121,0.7372,-1.0871,0.3888,0.5332,0.2272,9.5366,1.787,-1.1986,1.0356,0.5246,9.7096,-1.1587,2.8267,0.635,4.5474,-0.0625,10.0132,-0.6686,0.5829,-0.895333,0,1698651641.1973,91
-0.2531,-1.5661,-0.1139,0.7561,-0.8279,0.5707,0.8723,0.2149,9.1766,1.7103,-1.2739,0.9983,0.4607,9.5163,-1.0827,2.7724,0.0067,4.3117,-0.1248,9.7556,-0.6354,0.4664,-0.895063,0,1698651641.2077,91
-0.2647,-1.4561,-0.1064,0.7848,-0.6292,0.562,1.1698,0.1945,8.8526,1.647,-1.3418,1.1075,0.3812,9.3834,-1.0061,2.6962,-1.0847,4.1507,-0.1631,9.5909,-0.5915,0.389,-0.913977,0,1698651641.2174,92
-0.2746,-1.3454,-0.0986,0.7975,-0.4458,0.5978,1.4137,0.1949,8.8281,1.4752,-1.3715,1.2331,0.3493,9.2539,-0.9602,2.6526,-2.2895,3.8621,-0.2183,9.5326,-0.5587,0.347,-0.933032,0,1698651641.2283,93
-0.2829,-1.2299,-0.0906,0.7928,-0.2241,0.8744,1.6158,0.2059,8.816,1.354,-1.4354,1.427,0.3177,9.161,-0.924,2.6473,-3.2295,3.3056,-0.2288,9.4874,-0.5223,0.4732,-0.947982,0,1698651641.2372,93
-0.2902,-1.0901,-0.0822,0.79,-0.0221,1.1157,1.7789,0.188,8.8641,1.2682,-1.4442,1.5478,0.2633,9.0785,-0.9119,2.5851,-3.7952,2.9568,-0.2378,9.4683,-0.5049,0.642,-0.959596,0,1698651641.2478,94
-0.2966,-0.9487,-0.0738,0.8158,0.1254,1.3074,1.8893,0.2142,9.1038,1.086,-1.4604,1.5982,0.2219,8.9778,-0.9162,2.5572,-3.765,2.5223,-0.3028,9.3918,-0.6203,0.681,-0.968617,0,1698651641.2574,95
-0.3019,-0.8432,-0.0653,0.8685,0.1991,1.4291,1.9375,0.2358,9.1643,1.0084,-1.5412,1.7353,0.1659,8.9362,-0.8642,2.5967,-3.301,2.0868,-0.3635,9.3088,-0.8128,0.6901,-0.975624,0,1698651641.2681,96
-0.3063,-0.7599,-0.0572,0.9008,0.2128,1.5304,1.941,0.2693,9.2881,0.8423,-1.5928,1.8733,0.0559,8.9378,-0.8745,2.6135,-2.7506,1.9625,-0.3936,9.2328,-0.958,0.5964,-0.98106,0,1698651641.2772,96
-0.3098,-0.6505,-0.0497,0.8687,0.1443,1.5792,1.8976,0.3174,9.3984,0.6655,-1.5997,2.116,-0.0116,8.9495,-1.0347,2.5886,-2.219,1.9085,-0.4195,9.1014,-1.038,0.456,-0.985224,0,1698651641.2876,97
-0.3123,-0.5245,-0.0426,0.831,0.0467,1.5788,1.7991,0.3847,9.4158,0.5714,-1.6008,2.3812,-0.0393,8.9722,-1.1524,2.5142,-1.8548,2.1214,-0.4115,9.0399,-1.0712,0.3569,-0.98816,0,1698651641.2976,98
-0.3139,-0.4342,-0.0359,0.8158,-0.1893,1.5921,1.64,0.4918,9.4535,0.3267,-1.6468,2.5105,-0.1077,8.966,-1.1676,2.4163,-1.5361,2.4716,-0.3738,8.9962,-1.0588,0.3079,-0.987494,0,1698651641.3077,99
-0.315,-0.3492,-0.0286,0.7934,-0.4425,1.5266,1.4678,0.4437,9.4429,0.1142,-1.7447,2.438,-0.1617,8.9583,-1.2038,2.271,-1.1419,2.7138,-0.3419,8.9786,-1.0355,0.3103,-0.965194,0,1698651641.3187,99
-0.3154,-0.2612,-0.0214,0.7454,-0.7771,1.2517,1.0789,0.1592,9.4504,-0.0671,-1.6787,2.1115,-0.1031,8.9548,-1.3243,2.0042,-0.3135,2.6886,-0.2916,8.9688,-1.0311,0.3226,-0.866558,0,1698651641.332,0
-0.3153,-0.1865,-0.0137,0.7162,-1.1206,1.2,0.8241,0.1221,9.4849,-0.1869,-1.5351,1.9099,-0.0533,8.9456,-1.4004,1.9283,-0.0423,2.5313,-0.2542,8.9939,-1.0779,0.3388,-0.689402,0,1698651641.3435,1
-0.3152,-0.1423,-0.0057,0.7009,-1.4164,1.0687,0.5256,0.1124,9.4988,-0.2061,-1.3581,1.6612,0.0177,8.9756,-1.4522,1.9064,0.0941,2.2531,-0.1894,9.0451,-1.16,0.3679,-0.504706,0,1698651641.353,1
-0.3151,-0.1249,0.0011,0.6781,-1.6649,0.9061,0.217,0.1114,9.5187,-0.1737,-1.1779,1.4443,0.107,9.032,-1.4946,1.9252,0.1678,1.9604,-0.0743,9.1042,-1.2429,0.3662,-0.470305,0,1698651641.3639,2
-0.315,-0.0983,0.0081,0.6704,-1.8817,0.745,-0.0763,0.1114,9.4733,-0.0751,-0.9272,1.2152,0.1926,9.0748,-1.6042,1.8912,0.2855,1.6759,0.0501,9.1988,-1.3507,0.3585,-0.568825,0,1698651641.3742,3
-0.3149,-0.0742,0.015,0.6805,-2.0936,0.5968,-0.3638,0.1603,9.4241,0.0766,-0.6429,0.912,0.2803,9.108,-1.6586,1.8784,0.3198,1.3425,0.1322,9.25,-1.4258,0.391,-0.653936,0,1698651641.3841,4
-0.3148,-0.054,0.021,0.6686,-2.2974,0.4629,-0.6076,0.2338,9.4086,0.2241,-0.3787,0.5939,0.3434,9.1899,-1.6945,1.9203,0.3541,0.9565,0.2062,9.3128,-1.4954,0.4387,-0.722154,0,1698651641.3946,4
-0.3146,-0.0328,0.0273,0.6425,-2.3722,0.341,-0.7833,0.3019,9.3372,0.3387,-0.2016,0.3485,0.3634,9.3185,-1.7517,1.9732,0.5018,0.5281,0.3113,9.485,-1.5831,0.4613,-0.77669,0,1698651641.4061,5
-0.3142,0.0057,0.0334,0.6113,-2.3562,0.2949,-0.9146,0.4323,9.2564,0.4237,-0.0683,0.0812,0.378,9.4216,-1.7577,2.053,0.3796,0.07,0.3879,9.5926,-1.5986,0.4312,-0.820426,0,1698651641.4157,6
-0.3132,0.0543,0.0382,0.5686,-2.29,0.3026,-0.9954,0.5643,9.2115,0.5228,-0.0116,-0.2032,0.3928,9.4397,-1.7653,2.1257,0.2838,-0.308,0.3818,9.584,-1.5876,0.4111,-0.855331,0,1698651641.4254,7
-0.3113,0.1022,0.0418,0.5372,-2.1065,0.3409,-1.0231,0.6537,9.1288,0.6276,-0.0111,-0.4163,0.4069,9.4708,-1.8075,2.1501,0.3705,-0.593,0.3293,9.6115,-1.6048,0.4174,-0.879929,0,1698651641.4351,7
-0.3082,0.1711,0.0452,0.5088,-1.7945,0.4312,-1.0063,0.7208,8.9413,0.7296,0.0464,-0.6646,0.4485,9.5252,-1.8625,2.1846,0.2742,-0.8715,0.2707,9.6754,-1.6267,0.4357,-0.885894,0,1698651641.4452,8
-0.3043,0.2338,0.0484,0.4739,-1.4379,0.555,-0.9277,0.7135,8.865,0.8174,0.0928,-1.0653,0.5319,9.5589,-1.8943,2.2151,0.0434,-1.1143,0.22,9.748,-1.6428,0.4376,-0.865392,0,1698651641.4554,9
-0.2997,0.2754,0.0508,0.4184,-1.1515,0.6887,-0.8163,0.6828,9.0331,0.8035,0.0948,-1.4951,0.601,9.65,-1.8992,2.2118,-0.2014,-1.2006,0.1423,9.8757,-1.6364,0.4478,-0.859983,0,1698651641.4651,10
-0.2948,0.3272,0.0523,0.3536,-0.8566,0.7866,-0.671,0.6209,9.2145,0.7545,-0.0145,-1.9626,0.5439,9.7884,-1.8562,2.2161,-0.3192,-1.0903,0.041,10.003,-1.5922,0.4481,-0.882886,0,1698651641.4753,10
-0.2899,0.3559,0.0535,0.3014,-0.5663,0.8498,-0.4883,0.5331,9.2784,0.6873,-0.2766,-2.417,0.4015,9.9076,-1.7616,2.2091,-0.3024,-0.9118,-0.0674,10.1163,-1.5172,0.402,-0.902398,0,1698651641.4854,11
-0.2861,0.3394,0.0548,0.2762,-0.3509,0.8759,-0.2858,0.4202,9.3833,0.52,-0.5978,-2.7264,0.2466,10.0056,-1.6374,2.1841,-0.1752,-0.8004,-0.1764,10.2115,-1.4081,0.3398,-0.913439,0,1698651641.4953,12
-0.2841,0.3077,0.0564,0.2554,-0.1428,0.8493,-0.0681,0.2842,9.5416,0.2328,-0.849,-2.9003,0.0828,10.0592,-1.5275,2.173,-0.1028,-0.9176,-0.2338,10.243,-1.2924,0.2506,-0.913968,0,1698651641.5048,13
-0.2832,0.2844,0.0586,0.2611,0.1016,0.7894,0.1096,0.1798,9.5624,-0.0528,-0.993,-2.9093,-0.0572,10.0386,-1.4713,2.1663,-0.1266,-1.323,-0.2443,10.254,-1.2304,0.1711,-0.898023,0,1698651641.516,13
-0.2822,0.2547,0.0619,0.2947,0.3817,0.7293,0.222,0.1089,9.5684,-0.3123,-1.0903,-2.8114,-0.1795,10.0031,-1.4691,2.1132,-0.1759,-1.9763,-0.2405,10.2485,-1.2273,0.15,-0.856427,0,1698651641.5258,14
-0.2803,0.246,0.0656,0.2971,0.5422,0.6817,0.2573,0.0544,9.7641,-0.5005,-1.0731,-2.7448,-0.2874,10.0266,-1.4935,2.0348,-0.186,-2.7402,-0.2205,10.3112,-1.2391,0.1865,-0.815132,0,1698651641.5359,15
-0.2768,0.2861,0.0687,0.2581,0.6446,0.6107,0.2311,0.05,10.1455,-0.5502,-0.9276,-2.6606,-0.3728,10.1341,-1.5304,1.9905,-0.1282,-3.5073,-0.1623,10.4661,-1.2451,0.2005,-0.802003,0,1698651641.5468,16
-0.2707,0.3637,0.0709,0.2119,0.7404,0.5027,0.1349,0.1217,10.5224,-0.4517,-0.7387,-2.4316,-0.4699,10.3483,-1.5813,2.0427,0.0462,-4.0155,-0.0839,10.6791,-1.2331,0.2399,-0.806123,0,1698651641.5563,16
-0.2627,0.4718,0.0719,0.1661,0.7288,0.4035,0.0073,0.1758,10.9927,-0.2432,-0.6031,-2.218,-0.5938,10.6437,-1.6063,2.1701,0.2362,-4.2031,0.0178,10.9606,-1.2156,0.2943,-0.813436,0,1698651641.5657,17
-0.2535,0.5861,0.0719,0.1147,0.7061,0.3392,-0.0637,0.1034,11.3622,0.0647,-0.6068,-2.2813,-0.6799,10.9465,-1.5991,2.28,0.4281,-4.3155,0.1191,11.2717,-1.176,0.3059,-0.820995,0,1698651641.5753,18
-0.243,0.6755,0.0715,0.0811,0.7524,0.3438,-0.0608,-0.0488,11.4825,0.4774,-0.6907,-2.6219,-0.7118,11.2335,-1.5432,2.3453,0.6845,-4.3654,0.1559,11.5801,-1.0694,0.3215,-0.826202,0,1698651641.5851,19
-0.232,0.7298,0.0711,0.0484,0.7721,0.4019,0.0215,-0.2017,11.6005,0.9518,-0.8035,-2.9631,-0.734,11.4892,-1.4102,2.3931,0.853,-4.405,0.1377,11.8694,-0.8981,0.2818,-0.828248,0,1698651641.595,19
-0.2215,0.7533,0.0697,-0.0136,0.6852,0.4087,0.1382,-0.2909,11.2065,1.6547,-0.9091,-3.0757,-0.7777,11.6353,-1.2265,2.4273,0.9123,-4.3957,0.0221,12.0525,-0.6557,0.1937,-0.834317,0,1698651641.6047,20
-0.2124,0.7515,0.065,-0.1464,0.5206,0.3748,0.2519,-0.3564,10.7575,2.1509,-0.9195,-2.8614,-0.833,11.6372,-1.0408,2.4739,0.6942,-4.2777,-0.1409,12.0358,-0.4036,0.0863,-0.846349,0,1698651641.6158,21
-0.2044,0.7203,0.0551,-0.3795,0.4881,0.3365,0.4272,-0.6625,11.0371,2.3992,-0.8569,-2.3174,-0.9099,11.58,-0.8917,2.5296,0.1242,-4.0266,-0.2872,11.9315,-0.1741,0.0123,-0.8688,0,1698651641.6258,22
-0.198,0.6687,0.0411,-0.6821,0.4484,0.4244,0.6681,-0.8214,11.3668,2.6373,-0.6983,-1.485,-1.0396,11.5267,-0.758,2.5632,-0.5946,-3.6297,-0.4442,11.838,0.0237,0.0224,-0.897414,0,1698651641.6359,22
-0.1939,0.5883,0.0252,-0.9719,0.3886,0.6443,0.9447,-0.6706,11.3855,2.7337,-0.2887,-0.6791,-1.1659,11.3725,-0.6331,2.6287,-1.2296,-3.2285,-0.6097,11.6159,0.1549,0.0567,-0.920319,0,1698651641.646,23
-0.1915,0.4795,0.0077,-1.173,0.5075,0.8739,1.2388,-0.4701,10.9687,2.8161,0.4017,0.3934,-1.2129,11.0889,-0.5577,2.7433,-1.7765,-2.8436,-0.7902,11.2199,0.244,0.0977,-0.938109,0,1698651641.6558,24
-0.1905,0.4001,-0.0107,-1.3596,0.4976,1.1188,1.4724,-0.1537,10.3066,2.8521,1.1801,1.667,-1.1778,10.7657,-0.5333,2.8143,-2.2431,-2.3631,-0.9295,10.767,0.2629,0.1927,-0.951928,0,1698651641.6652,25
-0.1896,0.344,-0.0284,-1.5318,0.2913,1.3558,1.6214,0.1628,9.796,2.8733,1.8332,2.8437,-1.0687,10.4286,-0.551,2.8683,-2.5322,-1.8339,-0.9704,10.3176,0.2348,0.2873,-0.962661,0,1698651641.6755,25
-0.1874,0.3221,-0.0469,-1.6409,0.0638,1.5535,1.6758,0.3906,9.5101,2.8034,2.2749,3.7185,-0.8715,10.0834,-0.5615,3.0011,-2.6826,-1.4383,-0.9017,9.8895,0.1882,0.3523,-0.970997,0,1698651641.6862,26
-0.1831,0.3506,-0.0667,-1.7316,-0.0635,1.702,1.6396,0.5075,9.4233,2.5827,2.5353,3.8586,-0.6467,9.7741,-0.5371,3.1532,-2.727,-1.1701,-0.7988,9.5451,0.1837,0.4035,-0.977473,0,1698651641.6959,27
-0.1768,0.4148,-0.0859,-1.8144,-0.0542,1.8446,1.5263,0.5535,9.3895,2.3757,2.7129,3.5652,-0.404,9.5611,-0.516,3.2916,-2.6021,-1.0241,-0.6363,9.3207,0.184,0.4519,-0.982503,0,1698651641.7053,28
-0.1695,0.5126,-0.1041,-1.9011,-0.0197,2.0227,1.3327,0.5729,9.3863,2.2285,2.8874,3.0842,-0.1174,9.4676,-0.5143,3.3919,-2.2674,-0.9592,-0.4069,9.2322,0.1067,0.5517,-0.986408,1,1698651641.7153,28
-0.1614,0.6033,-0.1216,-1.9155,-0.0644,2.1875,1.0544,0.5664,9.3827,2.1671,3.1125,2.5989,0.164,9.5267,-0.5138,3.4386,-1.6852,-0.8287,-0.1793,9.3244,0.0336,0.6383,-0.853882,1,1698651641.7252,29
-0.153,0.661,-0.139,-1.8621,-0.118,2.3001,0.7301,0.4755,9.5031,2.1242,3.41,2.1853,0.4234,9.6667,-0.4872,3.4377,-0.807,-0.5833,0.0333,9.5232,0.0204,0.669,-0.547443,1,1698651641.7356,30
-0.1449,0.7038,-0.1568,-1.8279,-0.1646,2.4012,0.3912,0.3217,9.6228,2.0391,3.7468,1.8275,0.6676,9.8086,-0.4294,3.4115,0.2689,-0.2112,0.1856,9.7369,0.0638,0.6557,-0.222854,1,1698651641.7455,31
-0.1372,0.7364,-0.1732,-1.787,-0.2691,2.501,0.047,0.1606,9.7043,1.9374,4.0177,1.4762,0.8998,9.9409,-0.346,3.3963,1.4838,0.215,0.2783,9.9379,0.1257,0.5871,0.049032,1,1698651641.7555,31
-0.13,0.7438,-0.1882,-1.7174,-0.3451,2.5445,-0.2612,-0.1759,9.9863,1.7932,4.1966,1.0884,1.1126,10.0026,-0.2628,3.3624,2.6277,0.5665,0.3376,10.108,0.1846,0.4616,0.261355,1,1698651641.7655,32
-0.1228,0.7204,-0.2032,-1.6064,-0.3411,2.5314,-0.5483,-0.5485,10.1582,1.6772,4.2052,0.7598,1.2599,9.989,-0.1963,3.2761,3.5017,0.7594,0.3768,10.1995,0.2336,0.2752,0.426273,1,1698651641.7748,33
-0.116,0.6978,-0.2174,-1.5405,-0.2612,2.4982,-0.802,-0.7887,9.9964,1.625,4.0151,0.5711,1.3318,9.9403,-0.1318,3.162,4.0075,0.7729,0.3979,10.2071,0.2925,0.082,0.554369,1,1698651641.7853,34
-0.1093,0.6922,-0.2307,-1.5085,-0.1617,2.4017,-0.9965,-0.9769,9.739,1.646,3.7446,0.4637,1.345,9.8765,-0.0726,3.0414,4.1798,0.7067,0.3802,10.1963,0.3271,-0.0868,0.65386,1,1698651641.7953,34
-0.1027,0.6864,-0.2439,-1.4707,-0.081,2.2364,-1.1595,-1.1461,9.562,1.6142,3.4391,0.3684,1.3297,9.801,-0.0072,2.9439,4.1192,0.5726,0.3238,10.1726,0.3392,-0.2251,0.731105,1,1698651641.8058,35
-0.0964,0.6753,-0.2568,-1.4611,0.0268,2.0296,-1.2989,-1.3307,9.4601,1.6135,3.1533,0.3139,1.2931,9.7052,0.0597,2.8998,3.8779,0.3799,0.2553,10.1483,0.359,-0.3053,0.790967,0,1698651641.8155,36
-0.0911,0.6444,-0.2681,-1.4368,0.0714,1.8034,-1.4131,-1.4663,9.3615,1.6162,2.8554,0.4105,1.1794,9.6565,0.0772,2.8679,3.6223,0.202,0.1646,10.1461,0.3523,-0.3154,0.836345,0,1698651641.8246,37
-0.0867,0.6046,-0.2788,-1.3977,0.0634,1.5586,-1.5044,-1.5823,9.3273,1.5076,2.6019,0.725,1.0213,9.6673,0.0528,2.814,3.411,-0.0333,0.0609,10.1251,0.3192,-0.3137,0.859293,0,1698651641.8348,37
-0.0825,0.5572,-0.2896,-1.3661,0.0742,1.3054,-1.5881,-1.739,9.3129,1.4166,2.5055,0.9685,0.9018,9.631,0.0446,2.771,3.2375,-0.2885,-0.0469,10.0558,0.269,-0.3359,0.714122,0,1698651641.8449,38
-0.0785,0.5088,-0.2999,-1.311,0.0042,1.0781,-1.6795,-1.8361,9.2439,1.2962,2.5125,0.8891,0.8006,9.4994,0.0777,2.7374,3.1479,-0.4535,-0.1647,9.9603,0.2235,-0.3761,0.40079,0,1698651641.8556,39
-0.0752,0.4511,-0.31,-1.2298,-0.0058,0.7967,-1.7488,-1.8917,9.3033,1.1952,2.4574,0.4338,0.6793,9.383,0.0912,2.6584,3.1822,-0.5075,-0.2903,9.8782,0.1914,-0.4474,0.11114,0,1698651641.8663,40
-0.0727,0.3985,-0.3192,-1.1496,0.0307,0.4989,-1.795,-1.9371,9.457,1.0561,2.2578,-0.2284,0.5229,9.3645,0.064,2.5729,3.3828,-0.4114,-0.4203,9.8587,0.1568,-0.5111,-0.109264,0,1698651641.8761,40
-0.0703,0.3751,-0.3269,-1.0846,0.0309,0.2608,-1.8641,-1.9523,9.3678,0.8884,2.0073,-0.8211,0.3179,9.3531,0.0532,2.5199,3.7337,-0.2473,-0.5425,9.8302,0.1746,-0.5977,-0.28401,0,1698651641.8856,41
-0.0676,0.3745,-0.3339,-1.0028,-0.0081,0.0162,-1.9663,-1.8572,9.1684,0.8378,1.6662,-1.3207,0.1382,9.3098,0.0909,2.4726,4.1093,-0.1692,-0.6553,9.7603,0.2446,-0.735,-0.433695,0,1698651641.8956,42
-0.0643,0.3839,-0.3399,-0.8918,-0.058,-0.2821,-2.0534,-1.7026,8.9574,0.8745,1.3364,-1.7318,0.0088,9.2878,0.1303,2.4094,4.373,-0.1708,-0.7771,9.7348,0.3168,-0.87,-0.559062,0,1698651641.9058,43
-0.0603,0.4109,-0.3445,-0.7876,-0.0303,-0.5802,-2.0946,-1.6191,8.7839,0.8863,1.0667,-2.1115,-0.1112,9.262,0.1617,2.3726,4.3895,-0.2444,-0.8946,9.6744,0.3491,-1.0178,-0.507302,0,1698651641.9156,43
-0.0561,0.4512,-0.3483,-0.6763,-0.0855,-0.8075,-2.1147,-1.5917,8.894,0.74,0.7634,-2.3401,-0.2497,9.2938,0.1989,2.3619,4.2336,-0.346,-0.9578,9.6028,0.3307,-1.1036,-0.328475,0,1698651641.9256,44
-0.0521,0.4563,-0.3515,-0.5788,-0.165,-1.0607,-2.0869,-1.6426,9.093,0.6432,0.5654,-2.2534,-0.4288,9.3722,0.2019,2.3322,3.9718,-0.4274,-0.9362,9.5951,0.2976,-1.1442,-0.210807,0,1698651641.9353,45
-0.0476,0.4408,-0.3533,-0.4822,-0.1773,-1.2872,-2.0073,-1.6383,9.1025,0.6244,0.4763,-1.8324,-0.6011,9.4173,0.2162,2.299,3.6041,-0.5801,-0.8588,9.5747,0.2883,-1.2362,-0.141683,0,1698651641.9446,46
-0.0421,0.457,-0.3538,-0.3801,-0.1792,-1.43,-1.8926,-1.5689,8.9629,0.5755,0.4744,-1.283,-0.7154,9.4024,0.2837,2.2243,3.3159,-0.7908,-0.7911,9.5337,0.3684,-1.3143,-0.108718,0,1698651641.9552,46
-0.0361,0.5013,-0.3537,-0.2947,-0.1875,-1.551,-1.7081,-1.5228,8.8825,0.5384,0.5599,-0.8494,-0.805,9.3106,0.3076,2.1535,3.1022,-1.0081,-0.7291,9.4909,0.4453,-1.3932,-0.09085,0,1698651641.9652,47
-0.0305,0.5452,-0.3536,-0.2268,-0.2519,-1.6468,-1.5103,-1.4741,8.9398,0.4863,0.6536,-0.4905,-0.8993,9.2674,0.3547,2.1294,2.869,-1.2169,-0.6537,9.4729,0.442,-1.4606,-0.075424,0,1698651641.975,48
