right_q,right_q_dot,left_q,left_q_dot,pelv_ang_1,pelv_ang_2,pelv_ang_3,pelv_acc_1,pelv_acc_1,pelv_acc_3,right_back_ang_x,right_back_ang_y,right_back_ang_z,right_back_acc_x,right_back_acc_y,right_back_acc_z,left_back_ang_x,left_back_ang_y,left_back_ang_z,left_back_acc_x,left_back_acc_y,left_back_acc_z,,,,Label
-0.2705,-0.0834,-0.002,0.0219,-0.6208,-0.2104,0.88,0.6576,10.1654,0.2432,0.1633,1.2331,-0.4885,8.5434,-1.2729,5.3581,-1.4861,0.9368,-0.6632,9.4019,-1.2212,2.95,-0.999635,0,1698648003.8296,0
-0.2705,-0.0741,-0.002,0.0317,-0.5637,-0.1666,0.8025,0.7383,10.2308,0.1926,0.3583,1.3367,-0.4814,8.4935,-1.3262,5.3918,-1.4576,0.753,-0.692,9.3281,-1.2924,2.9641,-0.999717,0,1698648003.8406,1
-0.2705,-0.0534,-0.002,0.0419,-0.5492,-0.1275,0.7185,0.776,10.2546,0.1947,0.5311,1.4401,-0.48,8.4694,-1.37,5.426,-1.3946,0.6367,-0.7058,9.2692,-1.38,2.9767,-0.99978,0,1698648003.8509,1
-0.2705,-0.03,-0.002,0.0282,-0.7808,-0.0954,0.6208,0.7736,10.2146,0.2509,0.6567,1.4557,-0.4492,8.4782,-1.4222,5.4381,-1.2868,0.583,-0.7029,9.2136,-1.4582,2.9931,-0.999829,0,1698648003.8605,2
-0.2705,-0.0127,-0.002,0.0262,-0.9701,-0.0491,0.5126,0.7548,10.1273,0.3093,0.722,1.3809,-0.4108,8.507,-1.4836,5.4267,-1.1392,0.5677,-0.6862,9.1827,-1.5147,3.0176,-0.999867,0,1698648003.8714,2
-0.2705,0.0004,-0.002,0.0389,-1.1163,-0.0124,0.4055,0.7242,10.0345,0.3589,0.7854,1.3586,-0.4295,8.5077,-1.5374,5.4189,-0.9632,0.5678,-0.6545,9.1683,-1.5607,3.039,-0.999896,0,1698648003.8816,3
-0.2705,0.0056,-0.002,0.0295,-1.2196,0.0128,0.3087,0.6972,9.9559,0.3985,0.8381,1.3507,-0.4832,8.4986,-1.5632,5.4163,-0.7686,0.5891,-0.6017,9.159,-1.5828,3.049,-0.999917,0,1698648003.8924,3
-0.2703,0.0055,-0.002,0.0063,-1.3961,0.0647,0.2079,0.6765,10.0729,0.3675,0.8594,1.3181,-0.5522,8.4865,-1.5519,5.4119,-0.5705,0.6356,-0.5411,9.163,-1.5986,3.0784,-0.99992,0,1698648003.9026,4
-0.2702,0.0059,-0.0021,-0.0112,-1.529,0.0914,0.116,0.5955,10.1346,0.3153,0.8547,1.2961,-0.645,8.4605,-1.5242,5.4138,-0.3885,0.6878,-0.4847,9.1701,-1.5957,3.1119,-0.999815,0,1698648003.9128,5
-0.2701,0.0052,-0.0021,0.0021,-1.5146,0.0704,0.0429,0.4796,9.9594,0.3112,0.845,1.2859,-0.758,8.4168,-1.4714,5.4273,-0.2395,0.7105,-0.4417,9.1863,-1.5589,3.1417,-0.99922,0,1698648003.923,5
-0.27,0.0042,-0.0021,0.0307,-1.4974,0.0617,-0.0189,0.399,9.7851,0.3259,0.8248,1.255,-0.8815,8.3644,-1.3844,5.4295,-0.1263,0.711,-0.4202,9.2141,-1.5068,3.1707,-0.997252,0,1698648003.9326,6
-0.27,-0.0029,-0.0021,0.0273,-1.4901,0.0405,-0.0755,0.3396,9.6695,0.3405,0.7766,1.2003,-1.009,8.3272,-1.3038,5.4224,-0.0512,0.7464,-0.4163,9.2475,-1.4359,3.1836,-0.994049,0,1698648003.9428,6
-0.2699,-0.0084,-0.0021,0.0179,-1.4895,0.0112,-0.1331,0.3113,9.6441,0.3152,0.6949,1.1271,-1.1345,8.2905,-1.2427,5.4292,0.014,0.7875,-0.4253,9.2705,-1.3832,3.1862,-0.9905,0,1698648003.9526,7
-0.2698,-0.0149,-0.0021,0.01,-1.4967,-0.0106,-0.1847,0.3263,9.6604,0.2421,0.6306,1.0456,-1.249,8.2535,-1.1958,5.4553,0.0953,0.8399,-0.4552,9.2769,-1.3832,3.1857,-0.986817,0,1698648003.9621,7
-0.2697,-0.02,-0.0021,-0.0071,-1.4886,-0.037,-0.2332,0.3598,9.6846,0.2028,0.6045,0.9746,-1.3473,8.2271,-1.1634,5.4694,0.1312,0.9514,-0.5066,9.2628,-1.3851,3.1908,-0.983443,0,1698648003.9721,8
-0.2695,-0.0129,-0.0021,-0.0081,-1.4841,-0.0626,-0.2837,0.3941,9.7441,0.1949,0.6022,0.9296,-1.4355,8.2245,-1.1356,5.4603,0.1335,0.9953,-0.5635,9.2345,-1.3718,3.1781,-0.980918,0,1698648003.9818,9
-0.2693,-0.0088,-0.0021,-0.0094,-1.472,-0.0885,-0.3391,0.4363,9.7803,0.1992,0.6216,0.8709,-1.4913,8.2078,-1.1295,5.4696,0.2418,0.8641,-0.6163,9.2262,-1.3583,3.1455,-0.976877,0,1698648003.9917,9
-0.2692,-0.0059,-0.002,-0.0058,-1.4541,-0.1119,-0.4026,0.4674,9.7454,0.2341,0.6785,0.7758,-1.5031,8.1775,-1.1244,5.5051,0.4111,0.7971,-0.6692,9.2347,-1.3352,3.1277,-0.966561,0,1698648004.0013,10
-0.2691,-0.0169,-0.002,-0.0027,-1.465,-0.1191,-0.4809,0.5055,9.7365,0.2451,0.761,0.6722,-1.4765,8.1636,-1.0941,5.5482,0.5094,0.9556,-0.735,9.2338,-1.297,3.1061,-0.951633,0,1698648004.0118,10
-0.2691,-0.0371,-0.002,-0.0017,-1.4896,-0.1119,-0.5733,0.5771,9.7587,0.239,0.8336,0.5627,-1.4149,8.1506,-1.07,5.5822,0.5568,1.0727,-0.8142,9.2086,-1.2529,3.0592,-0.936696,0,1698648004.0219,11
-0.2691,-0.0441,-0.0019,0.0034,-1.5087,-0.0977,-0.6723,0.6637,9.7398,0.2479,0.89,0.4495,-1.3202,8.1392,-1.0461,5.5931,0.6106,0.9421,-0.8971,9.1528,-1.213,3.012,-0.91538,0,1698648004.032,11
-0.2691,-0.0417,-0.0017,0.0198,-1.5065,-0.0714,-0.7722,0.7435,9.669,0.2754,0.9117,0.3445,-1.1955,8.1303,-1.0226,5.5786,0.6405,0.6993,-0.9682,9.0906,-1.1671,2.9834,-0.872842,0,1698648004.0418,12
-0.2691,-0.0374,-0.0013,0.0336,-1.4877,-0.0178,-0.8694,0.8052,9.5531,0.3074,0.8868,0.2426,-1.068,8.1154,-1.0297,5.5372,0.6101,0.5464,-1.0167,9.0527,-1.1399,2.986,-0.815004,0,1698648004.0518,13
-0.2691,-0.0463,-0.0005,0.0584,-1.4416,0.0563,-0.9636,0.8652,9.3899,0.312,0.8597,0.1378,-0.951,8.0974,-1.0501,5.5033,0.583,0.4907,-1.039,9.012,-1.1472,3.0158,-0.750021,0,1698648004.0613,13
-0.2691,-0.0598,0.0007,0.0848,-1.3589,0.1343,-1.0632,0.9179,9.3286,0.2792,0.8481,0.0147,-0.8304,8.0752,-1.0674,5.5083,0.6208,0.4432,-1.0325,8.9643,-1.1595,3.0454,-0.65986,0,1698648004.071,14
-0.269,-0.0517,0.0018,0.0946,-1.264,0.2264,-1.1594,0.9607,9.2277,0.2601,0.822,-0.1278,-0.7034,8.0566,-1.0815,5.5195,0.7251,0.3739,-1.0035,8.9214,-1.16,3.0839,-0.510649,0,1698648004.0817,14
-0.2688,-0.0349,0.0039,0.1204,-1.1264,0.3039,-1.2485,0.9959,9.1032,0.2416,0.7728,-0.2786,-0.5741,8.0405,-1.0856,5.5283,0.8402,0.3244,-0.9648,8.8665,-1.1783,3.1253,-0.303813,0,1698648004.0919,15
-0.2685,-0.0207,0.0068,0.158,-0.8874,0.3743,-1.3331,1.0277,8.9701,0.2258,0.7422,-0.4212,-0.4226,8.0085,-1.0821,5.5532,0.9262,0.3072,-0.9178,8.7968,-1.2048,3.162,-0.071063,0,1698648004.1016,15
-0.2679,-0.011,0.0099,0.1966,-0.6183,0.4648,-1.4031,1.0666,8.6874,0.2612,0.7406,-0.5687,-0.2418,7.9877,-1.0772,5.5671,1.0015,0.2751,-0.8676,8.725,-1.204,3.2121,0.152097,0,1698648004.112,16
-0.2666,0.0259,0.0137,0.2316,-0.4433,0.5786,-1.4761,1.0604,8.5309,0.3135,0.696,-0.7642,-0.0554,7.9985,-1.0954,5.5699,1.0387,0.1632,-0.8081,8.7006,-1.2106,3.3026,0.331549,0,1698648004.1222,17
-0.264,0.0973,0.0178,0.2676,-0.3202,0.6985,-1.573,1.0573,8.7321,0.3106,0.6314,-1.0447,0.1474,8.0317,-1.1175,5.5881,1.0804,-0.1137,-0.721,8.7706,-1.236,3.4569,0.444881,0,1698648004.1321,17
-0.2597,0.1921,0.0218,0.2907,-0.2416,0.8743,-1.6482,0.9781,9.1395,0.3019,0.6767,-1.3665,0.3748,8.1522,-1.1218,5.6151,1.2722,-0.5282,-0.5955,8.9425,-1.2418,3.6179,0.48981,0,1698648004.1423,18
-0.2542,0.2939,0.025,0.2853,-0.2334,1.0491,-1.6648,0.7969,9.7063,0.3077,0.9207,-1.4998,0.5488,8.4301,-1.0562,5.6518,1.6094,-0.9345,-0.4357,9.1726,-1.1908,3.7231,0.526126,0,1698648004.1526,18
-0.2488,0.3392,0.028,0.2895,-0.2296,1.1279,-1.613,0.616,10.3457,0.337,1.3684,-1.3161,0.6439,8.812,-0.8711,5.699,1.9404,-1.2373,-0.2699,9.4069,-1.0809,3.807,0.57561,0,1698648004.162,19
-0.2448,0.3275,0.031,0.3155,-0.2113,1.1618,-1.4841,0.3791,10.7626,0.4625,1.8747,-1.1095,0.7136,9.1196,-0.6543,5.7552,2.1608,-1.6583,-0.1266,9.6551,-0.9241,3.8714,0.639993,0,1698648004.1712,19
-0.242,0.3145,0.034,0.3299,-0.1767,1.1625,-1.3278,0.099,10.9989,0.6137,2.2355,-0.9822,0.639,9.3425,-0.448,5.8654,2.2332,-1.9393,-0.0323,9.9581,-0.739,3.9171,0.717319,0,1698648004.1804,20
-0.2399,0.3085,0.0363,0.3013,-0.0875,1.1077,-1.1893,-0.2064,11.1676,0.8112,2.4297,-0.7454,0.3978,9.588,-0.2434,6.0705,2.1352,-1.8763,-0.0111,10.2963,-0.5599,3.986,0.779066,0,1698648004.1905,21
-0.2385,0.2551,0.0376,0.2529,-0.0012,0.9953,-1.0843,-0.4471,11.2904,1.0003,2.4826,-0.6193,0.1577,9.8252,-0.0503,6.3407,1.8886,-1.7575,-0.0491,10.6231,-0.3974,4.0812,0.827053,0,1698648004.2006,21
-0.2384,0.1842,0.038,0.2045,0.0683,0.8398,-1.0172,-0.5985,11.2511,1.134,2.389,-0.7507,0.0112,10.0242,0.0979,6.5511,1.582,-1.5536,-0.1136,10.8832,-0.251,4.1597,0.860522,0,1698648004.2111,22
-0.2386,0.1523,0.0381,0.1613,0.1616,0.6917,-0.977,-0.6544,11.0554,1.2312,2.0802,-1.0137,-0.0276,10.1354,0.1592,6.6266,1.2127,-1.2393,-0.1884,11.0049,-0.1341,4.1846,0.867111,0,1698648004.2208,22
-0.2386,0.1299,0.0381,0.1303,0.2689,0.5903,-0.9552,-0.5858,10.8547,1.2447,1.6223,-1.086,-0.0705,10.1163,0.1077,6.5671,0.7153,-0.886,-0.2661,10.9555,-0.053,4.1967,0.8239,0,1698648004.2325,23
-0.2386,0.0974,0.0381,0.1018,0.3881,0.5269,-0.9647,-0.4523,10.7104,1.2132,1.1404,-1.0024,-0.1226,9.9773,-0.0138,6.4217,0.11,-0.6466,-0.3554,10.7853,-0.0108,4.1933,0.678701,0,1698648004.2421,23
-0.2384,0.0756,0.0381,0.0867,0.5591,0.4888,-0.9984,-0.3016,10.5416,1.1938,0.6434,-1.1053,-0.0693,9.7933,-0.1149,6.2548,-0.5068,-0.5902,-0.4546,10.5473,-0.0272,4.1685,0.420811,0,1698648004.2515,24
-0.2381,0.0831,0.0381,0.0778,0.7899,0.408,-1.0553,-0.2289,10.2699,1.2004,0.254,-1.2014,0.0599,9.5803,-0.2185,6.0798,-0.9688,-0.6989,-0.5522,10.2538,-0.1108,4.1286,0.193962,0,1698648004.2616,25
-0.2369,0.1068,0.038,0.0441,0.872,0.4202,-1.1566,-0.1222,10.0832,1.1226,0.1075,-1.1056,0.1901,9.3237,-0.3281,5.955,-1.2297,-0.8949,-0.6279,9.9271,-0.2454,4.0677,0.022063,0,1698648004.2718,25
-0.2336,0.189,0.0378,0.0098,1.0253,0.5184,-1.295,-0.0201,10.1771,0.9642,0.2425,-0.9716,0.367,9.0768,-0.3927,5.9094,-1.2491,-1.1657,-0.6526,9.5874,-0.4166,4.0132,-0.085207,0,1698648004.2822,26
-0.2281,0.3113,0.0377,-0.0103,1.1128,0.6483,-1.4391,-0.0068,10.3455,0.8323,0.4923,-0.905,0.6024,8.8693,-0.4148,5.8965,-0.9071,-1.5524,-0.5986,9.2705,-0.5952,3.9732,-0.035878,0,1698648004.2916,26
-0.2209,0.4385,0.0376,-0.0319,0.9703,0.8199,-1.5612,-0.0291,10.2886,0.8437,0.7433,-0.8745,0.8347,8.721,-0.4191,5.8375,-0.2597,-2.0019,-0.4662,9.0219,-0.7466,3.9262,0.132602,0,1698648004.3015,27
-0.2128,0.5532,0.0373,-0.064,0.8868,0.9635,-1.616,-0.0533,10.0985,0.945,0.9699,-0.8756,1.0228,8.6103,-0.4115,5.7331,0.5219,-2.3902,-0.2876,8.863,-0.8251,3.8642,0.324102,0,1698648004.3117,27
-0.2041,0.6013,0.0364,-0.106,1.0351,1.0315,-1.6373,-0.198,10.2601,0.9168,1.0922,-0.9037,1.1306,8.523,-0.3599,5.623,1.29,-2.639,-0.0798,8.7869,-0.8035,3.8081,0.474735,0,1698648004.322,28
-0.1955,0.6345,0.0351,-0.125,1.1085,1.1193,-1.6402,-0.3805,10.4891,0.8214,1.1727,-0.8505,1.1205,8.4541,-0.2608,5.5096,2.0016,-2.7666,0.1429,8.7708,-0.6873,3.7546,0.591966,0,1698648004.3319,29
-0.1875,0.6929,0.0332,-0.1525,0.9013,1.2591,-1.5956,-0.5505,10.4691,0.8069,1.311,-0.6908,1.0139,8.3947,-0.1309,5.4376,2.5919,-2.6297,0.3653,8.7914,-0.5171,3.7029,0.683057,0,1698648004.3421,29
-0.1797,0.7244,0.0303,-0.2114,0.7643,1.3438,-1.537,-0.7807,10.2866,0.9346,1.5012,-0.5079,0.8279,8.3614,0.0377,5.3947,3.0171,-2.2166,0.573,8.8267,-0.332,3.674,0.7538,0,1698648004.3528,30
-0.172,0.7108,0.0261,-0.2761,0.7243,1.3422,-1.4575,-0.9073,9.9176,1.2674,1.7145,-0.2917,0.6008,8.3548,0.2285,5.3523,3.3363,-1.6656,0.7472,8.853,-0.1366,3.6681,0.808726,0,1698648004.3624,30
-0.1651,0.7153,0.0207,-0.3341,0.66,1.2805,-1.3753,-0.9691,9.6981,1.4882,1.835,-0.1468,0.4739,8.3502,0.4074,5.3718,3.505,-1.0365,0.8841,8.8508,0.0515,3.6581,0.851381,0,1698648004.3727,31
-0.1582,0.7264,0.0146,-0.3896,0.518,1.2872,-1.2816,-0.9534,9.5744,1.462,1.9499,-0.0999,0.4161,8.3436,0.552,5.3599,3.4826,-0.5547,0.9896,8.8217,0.2139,3.5694,0.884534,0,1698648004.3824,31
-0.1515,0.7177,0.0081,-0.4663,0.6659,1.294,-1.1653,-0.9915,9.5715,1.4405,2.178,-0.0949,0.4472,8.3124,0.6667,5.2719,3.0528,-0.0586,0.8534,8.7377,0.5987,3.4741,0.910307,0,1698648004.3922,32
-0.1455,0.7028,0.0008,-0.5348,0.7825,1.3394,-1.0571,-1.0024,9.6118,1.4871,2.3467,-0.1661,0.5965,8.2387,0.7585,5.1899,2.6474,-0.6243,0.6334,8.6663,0.8217,3.4417,0.93033,0,1698648004.4019,33
-0.1395,0.6828,-0.0066,-0.5601,0.5851,1.4147,-0.945,-0.9464,9.498,1.5573,2.4394,-0.3202,0.7253,8.167,0.8118,5.1325,3.0389,-2.2133,0.564,8.6608,0.7619,3.4275,0.945885,0,1698648004.4116,33
-0.1337,0.6722,-0.0143,-0.601,0.5323,1.4527,-0.8374,-0.9372,9.4093,1.6065,2.4611,-0.5465,0.7904,8.1134,0.8546,5.1073,3.1871,-2.7121,0.5867,8.6769,0.7716,3.4585,0.957967,0,1698648004.4214,34
-0.1284,0.6689,-0.0229,-0.6597,0.5654,1.5172,-0.7232,-0.922,9.1777,1.7099,2.4218,-0.8066,0.7933,8.0951,0.8967,5.1171,2.6579,-1.8783,0.6675,8.7228,0.7368,3.5328,0.967352,0,1698648004.4322,34
-0.123,0.6722,-0.0325,-0.7123,0.586,1.5818,-0.6149,-0.9227,9.0306,1.8287,2.5573,-0.9532,0.9412,8.0899,0.8826,5.192,2.3227,-0.9606,0.6944,8.7344,0.7117,3.5739,0.974641,0,1698648004.4421,35
-0.1178,0.6483,-0.0423,-0.7814,0.5969,1.6916,-0.5239,-0.8971,9.0471,1.8897,2.7019,-1.1293,1.2274,8.1514,0.9272,5.2655,2.3385,-0.8571,0.6565,8.7164,0.7008,3.577,0.980303,0,1698648004.4519,35
-0.1134,0.59,-0.0523,-0.8685,0.5926,1.8195,-0.4337,-0.9267,9.115,1.9184,2.7732,-1.3828,1.4701,8.2646,1.0357,5.3407,2.4726,-1.1567,0.6253,8.7545,0.6749,3.5671,0.984701,0,1698648004.4619,36
-0.1093,0.5412,-0.0633,-0.9385,0.5355,1.9895,-0.3431,-0.9651,9.1572,1.88,2.8175,-1.4937,1.6067,8.3333,1.1234,5.4261,2.3953,-1.0878,0.648,8.8461,0.6337,3.5906,0.988117,0,1698648004.472,37
-0.1049,0.5416,-0.0748,-0.9831,0.4495,2.1566,-0.2728,-1.0402,9.2141,1.8136,2.8886,-1.3966,1.6079,8.4182,1.1575,5.4331,2.3054,-0.8971,0.6818,8.9398,0.6273,3.6523,0.99077,0,1698648004.4815,37
-0.1003,0.5404,-0.087,-1.0785,0.4567,2.2863,-0.2369,-1.1722,9.265,1.7777,2.9345,-1.3331,1.6055,8.4962,1.1683,5.3982,2.3983,-0.9202,0.7175,9.0323,0.6491,3.6905,0.992831,0,1698648004.492,38
-0.0957,0.5137,-0.0996,-1.1627,0.4726,2.3999,-0.2031,-1.2393,9.3053,1.7138,2.7451,-1.4013,1.5874,8.5993,1.2237,5.3909,2.5318,-0.9876,0.7554,9.1394,0.6917,3.6854,0.994431,0,1698648004.5016,38
-0.0915,0.4874,-0.1125,-1.1902,0.4867,2.4744,-0.1862,-1.3472,9.5997,1.5843,2.4599,-1.5413,1.5487,8.7312,1.2513,5.3512,2.5785,-0.9718,0.7857,9.2293,0.7686,3.6489,0.995675,0,1698648004.5115,39
-0.0878,0.4539,-0.1255,-1.2164,0.5624,2.5707,-0.185,-1.4762,9.6476,1.4596,2.2444,-1.6287,1.5339,8.8074,1.254,5.2787,2.6181,-0.8104,0.793,9.2978,0.8527,3.5812,0.99664,0,1698648004.5215,39
-0.0839,0.4318,-0.1383,-1.2535,0.5623,2.6446,-0.19,-1.5555,9.4886,1.3699,2.0668,-1.5287,1.4849,8.853,1.2999,5.2732,2.7281,-0.5964,0.7962,9.3697,0.9003,3.4915,0.99739,0,1698648004.5325,40
-0.0797,0.4124,-0.1514,-1.294,0.7362,2.6347,-0.228,-1.7171,9.6704,1.2565,1.8538,-1.4255,1.4026,8.8989,1.3609,5.2898,2.7591,-0.4131,0.7671,9.4236,0.9339,3.4176,0.997973,0,1698648004.5427,41
-0.0757,0.3955,-0.1636,-1.2955,0.9155,2.6194,-0.2711,-1.8044,9.8116,1.1178,1.7055,-1.2916,1.3122,8.9422,1.3552,5.2484,2.7371,-0.3338,0.6848,9.4642,0.9621,3.3278,0.998426,0,1698648004.5523,41
-0.0723,0.3716,-0.1744,-1.2335,0.8528,2.5478,-0.326,-1.815,9.8148,1.0374,1.6184,-1.0155,1.2062,9.0029,1.3044,5.2122,2.737,-0.4111,0.6116,9.4915,0.9551,3.2102,0.998777,0,1698648004.5621,42
-0.0694,0.3521,-0.184,-1.1842,0.7965,2.43,-0.4248,-1.8403,9.9623,0.9661,1.6606,-0.6544,1.1213,9.072,1.1977,5.1919,2.6552,-0.5206,0.5743,9.4969,0.9165,3.1205,0.99905,0,1698648004.572,42
-0.0664,0.3494,-0.1932,-1.14,0.6888,2.37,-0.5467,-1.8191,10.1334,0.8049,1.7949,-0.368,1.0904,9.0965,1.0418,5.1483,2.4996,-0.4846,0.5615,9.5021,0.8385,3.0842,0.999262,0,1698648004.5813,43
-0.0634,0.3385,-0.2025,-1.0615,0.5182,2.3319,-0.6823,-1.7995,10.3142,0.5733,1.8795,-0.1882,1.1072,9.1093,0.8935,5.1254,2.4162,-0.3178,0.5729,9.5052,0.7276,3.0721,0.999427,0,1698648004.5916,43
-0.0604,0.3339,-0.2116,-0.9883,0.3321,2.3356,-0.8106,-1.7329,10.4097,0.4009,1.7357,-0.1601,1.2089,9.129,0.7539,5.095,2.4793,-0.0817,0.6004,9.5056,0.6233,3.0624,0.999555,0,1698648004.602,44
-0.0575,0.3164,-0.2202,-0.9354,0.2113,2.2992,-0.8941,-1.706,10.3578,0.4351,1.664,-0.2585,1.3884,9.153,0.6247,5.0394,2.6817,0.1367,0.6585,9.5057,0.5265,3.0073,0.999654,0,1698648004.6116,45
-0.0554,0.2863,-0.2286,-0.9314,0.1567,2.202,-0.9462,-1.707,10.2837,0.5684,1.8776,-0.2923,1.533,9.1869,0.5294,4.9924,2.9471,0.3386,0.7539,9.5042,0.4466,2.9254,0.999731,0,1698648004.6219,45
-0.054,0.2561,-0.2373,-0.9556,0.0428,2.1222,-0.9773,-1.6434,10.3078,0.6277,2.0469,-0.2989,1.6274,9.197,0.4808,4.9672,3.0297,0.481,0.8535,9.4878,0.4168,2.8461,0.999791,0,1698648004.6318,46
-0.0528,0.2236,-0.2459,-0.9541,-0.1122,2.0338,-0.9989,-1.575,10.3336,0.6418,2.1528,-0.3621,1.7101,9.1874,0.466,4.9433,3.2004,0.4621,0.954,9.4411,0.4286,2.7492,0.999838,0,1698648004.6416,46
-0.051,0.227,-0.2547,-0.9177,-0.2514,1.9745,-1.002,-1.539,10.2511,0.6433,2.1968,-0.406,1.7564,9.1658,0.4762,4.929,3.5716,0.3903,1.0575,9.3957,0.4464,2.6603,0.999874,0,1698648004.6521,47
-0.0484,0.2465,-0.2635,-0.8784,-0.2632,1.9429,-0.9592,-1.5295,10.0483,0.6606,2.1585,-0.446,1.7762,9.1464,0.4931,4.9251,3.7567,0.3771,1.1533,9.3934,0.4645,2.5662,0.999902,0,1698648004.6616,47
-0.0452,0.2575,-0.272,-0.8377,-0.2459,1.9499,-0.9056,-1.5015,9.8172,0.605,2.052,-0.5129,1.7976,9.1382,0.4761,4.8791,3.6782,0.4777,1.2277,9.422,0.4973,2.469,0.999924,0,1698648004.6723,48
-0.0416,0.282,-0.2805,-0.7948,-0.333,2.0031,-0.8733,-1.4183,9.9419,0.4688,1.8969,-0.5377,1.8261,9.1487,0.4378,4.772,3.3291,0.6939,1.2778,9.4587,0.5593,2.4039,0.999941,0,1698648004.6829,49
-0.0379,0.3146,-0.2883,-0.7637,-0.4706,2.0972,-0.8405,-1.3107,10.1906,0.3267,1.7756,-0.4665,1.8491,9.17,0.3997,4.6484,2.7989,1.0279,1.3065,9.4912,0.6278,2.3745,0.999954,0,1698648004.6923,49
-0.0351,0.3153,-0.2944,-0.7115,-0.5476,2.1933,-0.7904,-1.2359,10.0566,0.3684,1.735,-0.2954,1.8516,9.186,0.3536,4.5474,2.2388,1.4434,1.3356,9.5228,0.6538,2.3821,0.999964,0,1698648004.7026,50
-0.0327,0.3004,-0.2994,-0.6683,-0.5291,2.1692,-0.7923,-1.178,9.7082,0.6253,1.7214,-0.0789,1.8519,9.1986,0.3132,4.4926,1.7876,1.7839,1.3778,9.5522,0.6462,2.4233,0.999972,0,1698648004.7121,50
-0.0302,0.2891,-0.3042,-0.6657,-0.593,2.1137,-0.8586,-1.132,9.435,0.8451,1.7006,0.1182,1.8708,9.2141,0.2805,4.5114,1.5581,1.9028,1.4293,9.5556,0.6173,2.4713,0.999979,0,1698648004.722,51
-0.0276,0.2715,-0.3094,-0.6647,-0.7203,2.1082,-0.9314,-1.1736,9.3644,0.9836,1.6657,0.2738,1.8983,9.2574,0.2765,4.5671,1.5128,1.8774,1.4821,9.5624,0.5772,2.5145,0.999983,0,1698648004.7318,51
-0.0251,0.2418,-0.3145,-0.6244,-1.0705,2.1234,-0.9888,-1.2603,9.4349,1.0106,1.6088,0.3538,1.9299,9.3054,0.2827,4.6138,1.4972,1.8748,1.5121,9.5897,0.5353,2.5812,0.999987,0,1698648004.7425,52
-0.023,0.217,-0.3191,-0.5704,-1.3979,2.1677,-1.0095,-1.3488,9.5501,0.9517,1.5543,0.3896,1.9604,9.332,0.2547,4.6266,1.4808,1.889,1.5183,9.6194,0.5028,2.6584,0.999988,0,1698648004.7524,53
-0.0214,0.1964,-0.3236,-0.5462,-1.4239,2.1569,-0.9958,-1.443,9.7889,0.797,1.4975,0.465,1.9662,9.3327,0.2083,4.6162,1.5065,1.8795,1.5086,9.6518,0.4728,2.7506,0.999989,0,1698648004.7626,53
-0.0203,0.1834,-0.3275,-0.5067,-1.3878,2.0982,-0.9655,-1.5872,9.9502,0.6508,1.4432,0.5586,1.9366,9.3097,0.1873,4.5996,1.5622,1.9097,1.4901,9.662,0.4537,2.8205,0.999991,0,1698648004.7724,54
-0.0189,0.1749,-0.3303,-0.4332,-1.3725,2.0782,-0.9181,-1.6808,9.7522,0.576,1.4027,0.6006,1.8906,9.2829,0.1929,4.5829,1.6055,2.0635,1.456,9.6751,0.4386,2.8228,0.999992,0,1698648004.7822,54
-0.017,0.1814,-0.3319,-0.3555,-1.4314,2.0576,-0.8677,-1.7091,9.5258,0.4554,1.3696,0.605,1.8413,9.2579,0.2009,4.5588,1.6689,2.1932,1.4296,9.6793,0.416,2.7899,0.999994,0,1698648004.7914,55
-0.0147,0.1979,-0.3326,-0.2903,-1.5197,2.0322,-0.8302,-1.7984,9.6076,0.2692,1.3302,0.6307,1.7748,9.2187,0.2168,4.5135,1.6994,2.23,1.4099,9.6583,0.4125,2.766,0.999995,0,1698648004.8015,55
-0.0116,0.2293,-0.3328,-0.2316,-1.5466,1.9954,-0.8079,-1.9323,9.8454,0.0316,1.2825,0.6728,1.7002,9.1762,0.2409,4.4637,1.6831,2.2253,1.3639,9.6387,0.4243,2.745,0.999996,0,1698648004.8115,56
-0.0075,0.2844,-0.3329,-0.1823,-1.5495,1.9881,-0.7778,-2.0399,9.9205,-0.1935,1.2873,0.7762,1.626,9.1416,0.2709,4.4199,1.7215,2.1689,1.3078,9.6054,0.4302,2.7255,0.999996,0,1698648004.8213,57
-0.0031,0.3095,-0.3329,-0.1378,-1.4913,1.9126,-0.7408,-2.1244,9.8449,-0.1921,1.3498,0.9119,1.5548,9.0969,0.3075,4.3923,1.8826,2.1404,1.2488,9.5583,0.4367,2.7402,0.999997,0,1698648004.8323,57
0.001,0.3088,-0.3328,-0.1007,-1.389,1.767,-0.6942,-2.1843,9.7633,-0.0431,1.4111,0.996,1.4466,9.0377,0.3522,4.4097,2.0921,2.1524,1.1775,9.4967,0.4647,2.7132,0.999998,0,1698648004.8426,58
0.0038,0.2948,-0.3328,-0.0772,-1.3147,1.5849,-0.6222,-2.274,9.7779,0.0793,1.4281,0.9667,1.3319,8.9787,0.372,4.4293,2.19,2.1514,1.0786,9.4606,0.5036,2.6452,0.999998,0,1698648004.8521,58
0.0056,0.2675,-0.3328,-0.0602,-1.2953,1.3966,-0.5424,-2.3529,9.7192,0.1356,1.3969,0.8954,1.2309,8.9278,0.3446,4.4012,2.1468,2.1532,0.9541,9.4392,0.5439,2.5907,0.999999,0,1698648004.8616,59
0.0071,0.2556,-0.3327,-0.0456,-1.3944,1.2785,-0.4633,-2.3766,9.517,0.0855,1.3727,0.892,1.1005,8.8819,0.33,4.365,1.9803,2.1632,0.8352,9.4047,0.5514,2.5148,0.999999,0,1698648004.8719,59
0.0088,0.2553,-0.3327,-0.0349,-1.4654,1.1296,-0.373,-2.3944,9.3874,0.0386,1.3343,0.8638,0.9625,8.8315,0.3535,4.3389,1.7632,2.1683,0.7309,9.3552,0.5346,2.4526,0.999997,0,1698648004.8818,60
0.0107,0.2514,-0.3327,-0.0373,-1.4439,0.9509,-0.2645,-2.4152,9.2208,0.0428,1.2082,0.7823,0.8127,8.7982,0.3823,4.3011,1.6312,2.094,0.6354,9.2688,0.533,2.4545,0.999974,0,1698648004.892,61
0.0125,0.238,-0.3327,-0.0324,-1.4928,0.7814,-0.1606,-2.4428,9.1275,0.0271,1.0361,0.6755,0.6623,8.7828,0.3949,4.2445,1.5934,1.9084,0.5655,9.177,0.5309,2.4894,0.999777,0,1698648004.903,61
0.0147,0.2113,-0.3327,-0.0162,-1.5615,0.5842,-0.0509,-2.4322,9.179,0.0036,0.9374,0.6104,0.5259,8.7706,0.3805,4.2138,1.6348,1.6355,0.5308,9.1037,0.5315,2.5392,0.998963,0,1698648004.9132,62
0.0171,0.2088,-0.3327,-0.0289,-1.5194,0.3458,0.0752,-2.4267,9.0247,0.0196,0.9016,0.6084,0.402,8.7747,0.3836,4.2424,1.7931,1.3171,0.5286,9.0535,0.5354,2.6188,0.997072,0,1698648004.922,62
0.0197,0.2291,-0.3327,-0.0425,-1.4423,0.0736,0.197,-2.3879,8.633,0.0997,0.8593,0.6009,0.2879,8.788,0.4261,4.3156,2.0319,1.0007,0.5456,9.0332,0.5264,2.7111,0.994929,0,1698648004.9322,63
0.0226,0.2718,-0.3326,-0.0372,-1.368,-0.2238,0.3018,-2.3297,8.2235,0.2399,0.7711,0.5576,0.1694,8.7901,0.4962,4.3715,2.2618,0.6842,0.5869,9.0134,0.5309,2.7753,0.992626,0,1698648004.9428,63
0.0265,0.3194,-0.3323,-0.031,-1.2021,-0.5716,0.3705,-2.3612,7.8865,0.3849,0.5492,0.4371,0.0476,8.7477,0.5827,4.3857,2.3414,0.4214,0.6122,8.9593,0.5839,2.8423,0.948926,0,1698648004.9529,64
0.0312,0.3752,-0.3319,-0.0104,-0.9496,-0.9806,0.4102,-2.4709,7.6703,0.423,0.145,0.2522,-0.0913,8.7026,0.6903,4.3604,2.186,0.2521,0.5654,8.9162,0.6779,2.8756,0.759428,0,1698648004.9633,65
0.0363,0.431,-0.3317,0.0194,-0.6291,-1.3571,0.4495,-2.5666,7.5249,0.3274,-0.382,0.0763,-0.2487,8.6802,0.7896,4.2913,1.9247,0.0687,0.4711,8.8913,0.7822,2.8435,0.436483,0,1698648004.9741,65
0.0411,0.4541,-0.3315,0.036,-0.2029,-1.7714,0.4843,-2.6893,7.5392,0.2032,-0.995,-0.0374,-0.4076,8.642,0.8254,4.2376,1.6978,-0.2791,0.3518,8.8385,0.8656,2.8121,0.120005,0,1698648004.9835,66
0.0453,0.4534,-0.3308,0.0711,0.1631,-2.2568,0.496,-2.8393,7.7722,0.0477,-1.6586,-0.0643,-0.5693,8.5984,0.8229,4.2144,1.2915,-0.7487,0.2447,8.7919,0.8936,2.7803,-0.130057,0,1698648004.9935,66
0.0493,0.4511,-0.3292,0.1158,0.5241,-2.6313,0.5213,-2.791,7.5687,-0.1027,-2.2754,-0.2812,-0.7486,8.5717,0.8271,4.1937,0.6206,-1.1782,0.1819,8.7637,0.8837,2.7184,-0.32429,0,1698648005.0032,67
0.0537,0.4424,-0.3265,0.1715,0.8002,-2.9494,0.564,-2.5776,7.3028,-0.2423,-2.8559,-0.448,-0.9365,8.5686,0.8492,4.1947,0.0637,-1.782,0.1485,8.7485,0.8969,2.6105,-0.475156,0,1698648005.0131,67
0.0579,0.4305,-0.3232,0.2434,0.9456,-3.2971,0.6286,-2.5342,7.6687,-0.3451,-3.4108,-0.4071,-1.0773,8.6077,0.9127,4.2537,-0.3638,-2.6634,0.1422,8.7979,0.9729,2.5472,-0.592338,0,1698648005.0221,68
0.0612,0.4245,-0.3193,0.3154,1.1106,-3.6081,0.7453,-2.523,8.2723,-0.3951,-3.9611,-0.5526,-1.2045,8.7765,0.9961,4.3704,-0.9387,-3.5704,0.1611,9.0044,1.052,2.5809,-0.683357,0,1698648005.0315,69
0.064,0.412,-0.3138,0.4148,1.3043,-3.922,0.8666,-2.3555,8.7462,-0.169,-4.4653,-0.8377,-1.3502,9.1783,1.0531,4.5859,-1.5054,-4.5519,0.2082,9.3634,1.0514,2.679,-0.754054,0,1698648005.0418,69
0.0671,0.4046,-0.3064,0.5075,1.6653,-4.2554,0.897,-2.1097,9.2132,0.375,-4.6676,-1.089,-1.3646,9.6652,1.0089,4.9123,-2.0683,-5.5333,0.3283,9.8317,0.994,2.8552,-0.808966,0,1698648005.0514,70
0.0703,0.3755,-0.2976,0.5855,2.0811,-4.5134,0.831,-1.7611,9.6903,0.9059,-4.4772,-1.2348,-1.1916,9.9772,0.7893,5.2759,-2.86,-5.8737,0.5204,10.3735,0.853,3.0158,-0.851619,0,1698648005.0616,70
0.0729,0.3069,-0.2878,0.6925,2.3011,-4.5792,0.6954,-1.3623,10.3461,1.2481,-3.9687,-1.2833,-0.9005,10.1379,0.5001,5.6714,-3.7545,-5.4649,0.6909,10.8092,0.6413,3.1183,-0.884748,0,1698648005.0719,71
0.0741,0.2155,-0.2778,0.7874,2.1659,-4.3517,0.4904,-0.9916,11.3873,1.2885,-3.2517,-1.3465,-0.4724,10.2906,0.1613,6.0253,-4.4296,-4.7647,0.7774,11.1213,0.4242,3.2605,-0.91048,0,1698648005.0824,71
0.0741,0.1498,-0.2684,0.7996,1.9834,-3.944,0.2758,-0.7336,12.1838,1.2924,-2.6223,-1.3487,-0.0274,10.6166,-0.1336,6.342,-4.8109,-3.7624,0.8283,11.4911,0.1813,3.5084,-0.930467,0,1698648005.0923,72
0.074,0.1191,-0.2613,0.75,1.9448,-3.5225,0.0563,-0.5548,12.5472,1.3994,-2.5809,-1.5686,0.3498,11.0945,-0.3442,6.6342,-5.1308,-2.2902,0.9412,11.9267,-0.1263,3.8051,-0.945992,0,1698648005.1022,73
0.0739,0.106,-0.2571,0.6744,1.9207,-3.0843,-0.2165,-0.3593,12.7904,1.459,-2.8077,-1.7624,0.6751,11.4583,-0.5838,6.7079,-5.3087,-0.7564,1.0339,12.229,-0.3826,4.019,-0.95805,0,1698648005.1123,73
0.0736,0.0912,-0.2546,0.5697,1.8262,-2.5352,-0.4787,-0.158,12.9553,1.3206,-2.626,-1.5141,0.9006,11.6377,-0.9529,6.4643,-5.2013,0.377,0.9876,12.2641,-0.5015,4.0895,-0.967416,0,1698648005.1228,74
0.073,0.0476,-0.2533,0.4506,1.7724,-2.003,-0.6065,-0.2136,12.8246,1.1379,-2.2454,-1.0971,1.0799,11.5357,-1.2372,6.2208,-5.0251,1.3425,0.8467,12.0864,-0.5355,4.0603,-0.974691,0,1698648005.1329,74
0.0717,-0.0059,-0.2531,0.3374,1.8789,-1.6587,-0.5805,-0.5666,12.5588,1.0664,-2.4543,-0.9454,1.2636,11.1234,-1.0812,6.2987,-4.9538,2.3635,0.6751,11.7962,-0.5601,4.0267,-0.980342,0,1698648005.1418,75
0.0699,-0.0529,-0.253,0.2575,2.0238,-1.4236,-0.4375,-0.9778,12.1227,0.9969,-2.9923,-0.5079,1.2664,10.6664,-0.8373,6.3707,-4.9206,3.246,0.4643,11.4496,-0.5838,4.015,-0.984731,0,1698648005.1518,75
0.0679,-0.0945,-0.2523,0.2461,2.1321,-1.2385,-0.2507,-1.3766,11.5945,0.9475,-3.4861,-0.002,1.1085,10.2456,-0.693,6.1048,-4.8965,3.7107,0.2033,11.0456,-0.5631,3.9888,-0.98814,0,1698648005.1616,76
0.0654,-0.1262,-0.2501,0.2725,2.0287,-1.1185,-0.0357,-1.374,10.9316,0.5331,-4.0724,0.0135,0.938,9.7737,-0.5452,5.6609,-4.79,3.5033,-0.0794,10.5621,-0.5319,3.9257,-0.990788,0,1698648005.1717,77
0.0621,-0.1709,-0.2455,0.3145,1.8777,-1.2887,0.2685,-1.6092,10.3464,0.325,-4.5381,0.0391,0.6753,9.224,-0.4204,5.2812,-4.5429,2.6784,-0.3928,10.0269,-0.4958,3.8083,-0.992845,0,1698648005.1818,77
0.0574,-0.2525,-0.2383,0.4096,1.7809,-1.5052,0.6497,-2.2006,10.0331,0.4673,-4.95,-0.0373,0.3203,8.6565,-0.3054,5.0027,-4.3219,1.7172,-0.7299,9.5319,-0.4782,3.6462,-0.994442,0,1698648005.1919,78
0.0515,-0.3423,-0.2289,0.5458,1.7397,-1.6632,1.0114,-2.4098,9.6135,0.5076,-5.0842,-0.0608,-0.0397,8.1911,-0.2443,4.7622,-4.1358,0.8556,-1.054,9.0841,-0.483,3.4589,-0.995683,0,1698648005.2015,78
0.0451,-0.4417,-0.2191,0.6352,1.6796,-1.9035,1.34,-2.3478,9.1879,0.6497,-4.932,0.1536,-0.4259,7.8496,-0.1964,4.605,-3.9963,0.0661,-1.3501,8.6558,-0.483,3.2749,-0.996647,0,1698648005.2114,79
0.0377,-0.5362,-0.2102,0.6607,1.5094,-2.1591,1.6319,-2.1638,9.0338,0.7593,-4.8009,0.6285,-0.8707,7.6184,-0.0987,4.6994,-3.9426,-0.887,-1.626,8.2817,-0.4942,3.0994,-0.997396,0,1698648005.2223,79
0.0286,-0.6137,-0.2026,0.6538,1.3729,-2.5052,1.8263,-2.0589,9.0522,0.9527,-4.6182,1.2395,-1.373,7.5424,-0.0844,4.7973,-4.0082,-2.2231,-1.8702,8.0031,-0.5264,2.9654,-0.997977,0,1698648005.2324,80
0.0181,-0.7027,-0.1967,0.635,1.2328,-2.8728,1.9355,-1.9459,8.9423,1.1537,-4.2606,1.5973,-1.8484,7.5155,-0.1817,4.6809,-4.2151,-3.8113,-2.059,7.8854,-0.564,2.9336,-0.998429,0,1698648005.2427,81
0.0061,-0.8604,-0.192,0.6053,1.0448,-3.2171,1.9598,-1.7266,8.8852,1.2625,-4.0818,1.6963,-2.1776,7.4187,-0.2122,4.838,-4.5948,-5.2094,-2.1588,7.9385,-0.6253,2.9823,-0.99878,0,1698648005.252,81
-0.0067,-1.0077,-0.1884,0.5591,0.73,-3.5357,1.8739,-1.4215,9.1381,1.2872,-3.9011,2.0364,-2.6361,7.4085,-0.235,5.2318,-5.0295,-6.1564,-2.1468,8.0883,-0.7127,3.0825,-0.999052,0,1698648005.2623,82
-0.0208,-1.0766,-0.1851,0.5245,0.4122,-3.8794,1.6725,-1.1381,9.5577,1.317,-3.5809,2.2538,-3.1277,7.4684,-0.3054,5.5198,-5.3288,-6.6764,-2.0548,8.2763,-0.8089,3.1977,-0.999264,0,1698648005.2723,82
-0.0368,-1.1418,-0.181,0.5193,0.2548,-4.195,1.4095,-0.9326,9.5813,1.453,-3.2879,2.2607,-3.4534,7.5505,-0.3839,5.7753,-5.7078,-6.7557,-2.0354,8.4932,-1.0497,3.4077,-0.999428,0,1698648005.2822,83
-0.0533,-1.1843,-0.1758,0.5324,0.1317,-4.4018,1.1201,-0.6851,9.4085,1.5466,-2.9223,2.215,-3.846,7.6784,-0.4619,6.0478,-5.3784,-6.7763,-2.0169,8.7883,-1.2024,3.2942,-0.999556,0,1698648005.2922,83
-0.0698,-1.2849,-0.1702,0.5415,0.0097,-4.5522,0.7913,-0.367,9.458,1.6655,-2.5616,2.0056,-4.0215,7.8091,-0.5252,6.2766,-4.7434,-5.8413,-1.838,9.1231,-1.2513,3.0949,-0.999655,0,1698648005.3022,84
-0.0861,-1.3995,-0.1646,0.537,-0.0229,-4.6732,0.4728,-0.0699,9.5608,1.81,-2.2295,1.7859,-3.886,7.9423,-0.5883,6.4422,-4.5748,-3.4712,-1.6207,9.4251,-1.3967,3.2615,-0.999732,0,1698648005.3125,85
-0.1021,-1.4492,-0.158,0.5697,0.0319,-4.7391,0.2315,0.074,9.5853,1.8861,-1.9809,1.5231,-3.704,8.0873,-0.6247,6.5966,-4.1925,-1.2843,-1.4008,9.5931,-1.506,3.4191,-0.999792,0,1698648005.3222,85
-0.1173,-1.4527,-0.1508,0.6216,0.1878,-4.7281,0.0798,0.1585,9.5849,1.9415,-1.8457,1.2237,-3.4962,8.2303,-0.6364,6.6956,-3.5981,-0.2231,-1.1899,9.6271,-1.5814,3.4974,-0.999838,0,1698648005.3327,86
-0.1321,-1.4188,-0.1434,0.6418,0.4069,-4.6352,0.0165,0.2493,9.4207,2.0896,-1.8328,0.8538,-3.2768,8.3206,-0.6592,6.7463,-3.0341,0.0516,-1.0747,9.6303,-1.6123,3.5234,-0.999874,0,1698648005.3423,86
-0.1463,-1.4193,-0.1357,0.6729,0.5558,-4.4437,0.0338,0.3275,9.2322,2.2006,-1.9795,0.2248,-2.9803,8.3725,-0.6803,6.7435,-2.7606,0.2257,-1.0815,9.601,-1.5897,3.5386,-0.999902,0,1698648005.3524,87
-0.1595,-1.4251,-0.1286,0.6755,0.8035,-4.1817,0.1077,0.4228,9.4747,2.0717,-2.3466,-0.7162,-2.5693,8.3546,-0.7165,6.7458,-2.8404,0.5407,-1.1822,9.5517,-1.5425,3.5311,-0.999924,0,1698648005.3625,87
-0.1722,-1.3975,-0.1225,0.6277,1.0275,-3.9355,0.2308,0.4329,9.8269,1.8606,-2.8789,-1.7556,-2.1726,8.3025,-0.7606,6.7551,-3.1044,0.6985,-1.3133,9.5244,-1.4858,3.4969,-0.999941,0,1698648005.372,88
-0.1836,-1.3582,-0.1174,0.6046,1.0668,-3.6983,0.3954,0.395,9.8495,1.7523,-3.398,-2.8025,-1.6513,8.2745,-0.7527,6.606,-3.2932,0.4043,-1.4159,9.5171,-1.415,3.4263,-0.999954,0,1698648005.3825,89
-0.1943,-1.2897,-0.1132,0.5599,1.0428,-3.422,0.5923,0.3798,9.8002,1.6537,-3.8761,-3.8414,-1.0829,8.3731,-0.6893,6.3424,-3.3947,0.0003,-1.4795,9.5096,-1.3395,3.3314,-0.999964,0,1698648005.3936,89
-0.2052,-1.2167,-0.1099,0.4623,0.8971,-3.1273,0.7887,0.3757,9.8929,1.5111,-4.3047,-4.7003,-0.6294,8.4603,-0.6463,6.0903,-3.4923,0.035,-1.5314,9.5002,-1.2682,3.2504,-0.999972,0,1698648005.403,90
-0.215,-1.1769,-0.1075,0.407,0.7244,-2.8515,0.9702,0.3947,10.0619,1.3311,-4.7108,-5.203,-0.2789,8.4396,-0.5316,5.7707,-3.5749,0.6253,-1.5828,9.474,-1.1867,3.194,-0.999979,0,1698648005.4126,90
-0.2238,-1.1166,-0.1052,0.3869,0.8552,-2.6219,1.1316,0.3542,10.1231,1.1967,-4.9495,-5.1205,-0.2231,8.4749,-0.4673,5.5509,-3.6135,1.4451,-1.6432,9.4122,-1.0983,3.1643,-0.999983,0,1698648005.4224,91
-0.2327,-1.0742,-0.1018,0.4071,1.2236,-2.3976,1.2834,0.278,9.9916,1.0994,-4.8785,-4.3764,-0.3928,8.4592,-0.5511,5.4015,-3.5924,2.1508,-1.7395,9.3244,-1.0379,3.1348,-0.999987,0,1698648005.4323,91
-0.2413,-1.0412,-0.0974,0.4278,1.2583,-2.168,1.4056,0.2349,9.8008,1.0028,-4.6503,-3.3962,-0.597,8.3781,-0.688,5.1291,-3.5794,2.6735,-1.8782,9.2222,-1.0005,3.0825,-0.99999,0,1698648005.443,92
-0.2499,-0.9931,-0.0927,0.4227,1.0211,-1.9846,1.4698,0.2696,9.768,0.9192,-4.433,-2.6263,-0.7633,8.2694,-0.8647,4.9004,-3.6647,3.0402,-2.0311,9.1023,-0.9857,3.0237,-0.999992,0,1698648005.452,93
-0.2579,-0.9488,-0.0882,0.4322,0.8164,-1.8625,1.4771,0.3452,9.8657,0.8599,-4.3111,-2.0871,-0.8951,8.1417,-1.0019,4.7548,-3.8247,3.1768,-2.1721,8.9872,-1.0026,2.9836,-0.999994,0,1698648005.4615,93
-0.2649,-0.8808,-0.0832,0.4466,0.6079,-1.7311,1.4427,0.3924,9.8756,0.8702,-4.1551,-1.5925,-0.9769,8.0793,-1.1421,4.6343,-3.9763,2.9855,-2.279,8.8865,-1.0424,2.9563,-0.999995,0,1698648005.4718,94
-0.2721,-0.8117,-0.0774,0.4834,0.4563,-1.5846,1.4041,0.417,9.7115,0.9148,-3.7398,-0.87,-1.0806,8.0641,-1.3043,4.53,-4.0386,2.4602,-2.3228,8.8049,-1.1029,2.943,-0.999996,0,1698648005.4816,94
-0.2793,-0.7864,-0.0721,0.4945,0.4126,-1.5076,1.3502,0.4373,9.4621,1.0674,-3.3432,-0.2508,-1.1321,8.0244,-1.388,4.5232,-3.9976,1.7582,-2.3143,8.7543,-1.1839,2.9624,-0.999997,0,1698648005.4917,95
-0.2866,-0.7849,-0.0677,0.4685,0.3293,-1.5218,1.2623,0.3583,9.623,1.0137,-2.9959,0.4568,-1.2889,7.9931,-1.4714,4.6514,-3.8924,1.1533,-2.2923,8.7433,-1.2629,3.0224,-0.999998,0,1698648005.5019,95
-0.294,-0.7666,-0.0635,0.4582,0.1401,-1.3983,1.1804,0.308,9.8368,0.7572,-2.3205,1.7699,-1.6203,8.1277,-1.4956,4.6376,-3.705,0.7942,-2.2582,8.7739,-1.3274,3.0946,-0.999998,0,1698648005.5117,96
-0.3008,-0.7344,-0.0592,0.4446,-0.1176,-1.1591,1.1091,0.3328,9.8117,0.618,-1.5676,3.1291,-2.043,8.2789,-1.5465,4.6608,-3.4359,0.6841,-2.2036,8.8283,-1.3816,3.1742,-0.999999,0,1698648005.5218,97
-0.3069,-0.7141,-0.0553,0.4246,-0.4029,-1.0169,1.0223,0.3397,9.9425,0.4837,-0.8762,4.3271,-2.5665,8.284,-1.7274,4.8657,-3.1059,0.7723,-2.1347,8.8879,-1.4249,3.2422,-0.999999,0,1698648005.5316,97
-0.3123,-0.6991,-0.0517,0.4241,-0.6195,-0.9021,0.9318,0.336,10.1207,0.3744,-0.352,5.0377,-3.0098,8.2318,-1.8414,5.1168,-2.7396,1.025,-2.0548,8.9484,-1.4578,3.2678,-0.999999,0,1698648005.5413,98
-0.3163,-0.6473,-0.0478,0.4296,-0.7417,-0.8266,0.8274,0.3043,10.1245,0.3375,0.0135,5.2343,-3.3796,8.1801,-1.9784,5.4208,-2.3716,1.3823,-1.9578,8.9898,-1.4906,3.2839,-0.999999,0,1698648005.5522,98
-0.319,-0.5477,-0.0427,0.4246,-0.7769,-0.7296,0.7318,0.3067,9.8296,0.3175,0.3697,5.2993,-3.476,8.1578,-2.0305,5.4245,-2.0142,1.745,-1.8467,9.0399,-1.5254,3.2916,-0.999997,0,1698648005.5619,99
-0.3203,-0.4307,-0.0371,0.43,-0.7089,-0.6406,0.6491,0.2467,9.6661,0.3078,0.5706,5.0651,-3.3472,8.0502,-1.9604,5.2809,-1.6479,2.0063,-1.7109,9.0844,-1.5594,3.278,-0.999845,0,1698648005.5719,99
-0.3207,-0.3366,-0.032,0.4419,-0.5273,-0.632,0.3487,0.159,9.6738,0.3427,0.6201,4.8219,-3.0998,8.0152,-1.8599,5.3069,-1.2561,2.1147,-1.5621,9.0957,-1.5815,3.2552,-0.99937,0,1698648005.5818,0
-0.3207,-0.263,-0.0266,0.4562,-0.4042,-0.6202,0.1052,0.1019,9.5969,0.3822,0.6288,4.592,-2.8019,8.1639,-1.8487,5.5071,-0.8904,2.1145,-1.4217,9.0913,-1.5792,3.2148,-0.997232,0,1698648005.5915,1
-0.3206,-0.2114,-0.021,0.4657,-0.3972,-0.611,0.1104,0.1005,9.5827,0.3524,0.7139,3.8911,-2.5918,8.195,-1.8082,5.6703,-0.5927,2.0666,-1.2965,9.0816,-1.5386,3.1593,-0.988946,0,1698648005.6015,1
-0.3206,-0.1713,-0.0158,0.4562,-0.3611,-0.6346,0.0957,0.1457,9.6443,0.3044,0.8541,3.3424,-2.3775,8.1924,-1.6102,5.7553,-0.3521,2.0064,-1.2001,9.0716,-1.482,3.0925,-0.96631,0,1698648005.6115,2
-0.3205,-0.1177,-0.0117,0.4385,-0.3288,-0.6588,0.0757,0.1706,9.8001,0.2402,1.1164,3.1898,-2.2025,8.2478,-1.4818,5.8014,-0.1822,1.9579,-1.1286,9.0595,-1.4078,3.0071,-0.91756,0,1698648005.6219,3
-0.3204,-0.0829,-0.0082,0.4162,-0.3846,-0.6581,0.0551,0.1788,9.8631,0.1863,1.3466,2.6937,-1.9618,8.2398,-1.358,5.7358,-0.0742,1.9467,-1.0688,9.0531,-1.3135,2.9173,-0.865961,0,1698648005.6322,4
-0.3203,-0.0711,-0.0045,0.3925,-0.4936,-0.649,0.0263,0.3072,9.8488,0.1289,1.4555,2.1048,-1.6623,8.2144,-1.249,5.6865,0.0081,2.0113,-1.0122,9.0372,-1.2345,2.8494,-0.842152,0,1698648005.6419,4
-0.3201,-0.0575,-0.0008,0.3661,-0.476,-0.653,0.0048,0.453,9.7176,0.1231,1.6006,1.7265,-1.4084,8.1804,-1.2146,5.6616,0.0464,2.1935,-0.9579,9.0189,-1.1642,2.8031,-0.834424,0,1698648005.6515,5
-0.3195,-0.0336,0.0027,0.3621,-0.4982,-0.6007,-0.0017,0.4932,9.5224,0.1808,1.7116,1.3859,-1.1541,8.1747,-1.1786,5.6393,0.0114,2.4663,-0.9158,9.0034,-1.0998,2.7495,-0.833549,0,1698648005.6618,6
-0.3179,0.0261,0.0064,0.3838,-0.6568,-0.5141,-0.0647,0.6742,9.5328,0.1645,1.8004,1.1051,-0.908,8.1937,-1.1415,5.5851,-0.0823,2.7149,-0.8924,8.9753,-1.0457,2.6939,-0.848366,0,1698648005.6717,6
-0.3157,0.0789,0.0108,0.416,-0.7025,-0.4647,-0.152,0.8706,9.3882,0.2272,1.8352,0.8163,-0.6853,8.1954,-1.1199,5.5168,-0.2053,2.8542,-0.8803,8.9626,-1.0104,2.6591,-0.875529,0,1698648005.6815,7
-0.3131,0.1139,0.0162,0.4463,-0.7439,-0.3522,-0.2368,1.0357,9.1928,0.236,1.8206,0.3994,-0.4314,8.2028,-1.1282,5.4504,-0.3367,2.8278,-0.8759,8.9631,-0.9936,2.6769,-0.902088,0,1698648005.6916,8
-0.31,0.1666,0.022,0.4504,-0.8187,-0.1779,-0.3581,1.2329,9.3067,0.0988,1.8569,0.0713,-0.1472,8.2324,-1.1986,5.3605,-0.5009,2.8721,-0.8828,8.9801,-0.9908,2.737,-0.92379,0,1698648005.7017,9
-0.3063,0.2203,0.0274,0.4604,-0.7712,0.0061,-0.4889,1.3339,9.4436,0.062,1.943,0.0064,0.0973,8.2773,-1.2909,5.2846,-0.672,2.7692,-0.8856,9.0139,-1.0033,2.7885,-0.940765,0,1698648005.7119,9
-0.3021,0.2435,0.0328,0.4944,-0.6013,0.1422,-0.6161,1.3194,9.4077,0.1802,1.9784,-0.0098,0.3282,8.3472,-1.338,5.2508,-0.752,2.3152,-0.8707,9.0503,-1.0226,2.8306,-0.95395,0,1698648005.7219,10
-0.2978,0.2464,0.0382,0.4991,-0.4088,0.2973,-0.7175,1.29,9.2897,0.2704,2.023,-0.054,0.5442,8.4191,-1.3685,5.2152,-0.6778,1.8442,-0.8344,9.1005,-1.0486,2.8569,-0.964058,0,1698648005.7324,11
-0.2937,0.256,0.0433,0.4703,-0.319,0.4953,-0.7834,1.2732,9.3991,0.2383,2.0882,-0.0678,0.7119,8.472,-1.3804,5.2046,-0.4693,1.4374,-0.7747,9.148,-1.0642,2.8907,-0.970649,0,1698648005.7428,12
-0.2905,0.2484,0.0478,0.4561,-0.3208,0.6858,-0.8185,1.2327,9.6893,0.1645,2.1935,-0.047,0.8124,8.5193,-1.3712,5.2474,-0.1898,1.141,-0.7019,9.194,-1.0814,2.9493,-0.960392,0,1698648005.7527,12
-0.2888,0.1999,0.0521,0.4698,-0.2958,0.8951,-0.8031,1.1376,9.7148,0.1424,2.3885,-0.0343,0.8768,8.5472,-1.3395,5.3229,0.1288,0.9534,-0.6198,9.2396,-1.1226,3.0141,-0.786559,0,1698648005.7619,13
-0.2884,0.147,0.0563,0.4734,-0.2192,1.0968,-0.7511,0.99,9.5908,0.147,2.6023,-0.044,0.9507,8.5531,-1.2846,5.4297,0.4716,0.8231,-0.5296,9.3013,-1.1532,3.0967,-0.443873,0,1698648005.7719,14
-0.2884,0.1085,0.0597,0.4503,-0.1308,1.3055,-0.6834,0.9138,9.5512,0.0652,2.7368,-0.0669,1.0149,8.5886,-1.2701,5.5097,0.8061,0.6954,-0.4374,9.3748,-1.1736,3.1772,-0.12158,0,1698648005.7812,14
-0.2884,0.0786,0.0626,0.4197,-0.1141,1.535,-0.6129,0.8865,9.6607,-0.0876,2.7551,-0.1179,1.0648,8.6446,-1.3162,5.5437,1.0923,0.5766,-0.3385,9.4271,-1.1861,3.2274,0.128833,0,1698648005.7922,15
-0.2884,0.0682,0.0656,0.3919,-0.1958,1.8231,-0.5386,0.9606,9.9372,-0.2952,2.6816,-0.1882,1.124,8.6867,-1.389,5.5467,1.272,0.4111,-0.231,9.4656,-1.1924,3.3017,0.323339,0,1698648005.8022,16
-0.2883,0.0681,0.0689,0.3886,-0.1859,2.1091,-0.4604,1.0888,10.1174,-0.383,2.5649,-0.3587,1.2492,8.7465,-1.4789,5.5556,1.3017,-0.009,-0.1339,9.5567,-1.2321,3.462,0.474417,0,1698648005.8113,17
-0.288,0.0751,0.0728,0.4144,-0.0631,2.3798,-0.3903,1.1432,10.2566,-0.3232,2.4257,-0.6939,1.5058,8.9078,-1.5757,5.6064,1.2864,-0.7835,-0.0277,9.7613,-1.304,3.7111,0.591764,0,1698648005.8216,17
-0.287,0.0927,0.0766,0.3982,0.0467,2.5978,-0.3188,0.9799,10.7004,-0.1503,2.4811,-1.1035,1.8534,9.2266,-1.6734,5.7237,1.3784,-1.7941,0.1143,10.0791,-1.3909,3.9543,0.682911,0,1698648005.8322,18
-0.2841,0.146,0.0784,0.3234,0.0791,2.7833,-0.2224,0.6037,11.3333,0.1037,2.9682,-1.3662,2.1217,9.657,-1.703,5.9516,1.7013,-2.7495,0.3218,10.4533,-1.4718,4.093,0.753708,0,1698648005.8427,19
-0.2783,0.2431,0.0784,0.2355,0.0754,2.9444,-0.0963,0.1399,11.6971,0.4109,3.7044,-1.5029,2.279,10.0368,-1.4791,6.3453,2.3135,-3.3245,0.6168,10.7451,-1.4493,4.1365,0.808698,0,1698648005.8521,19
-0.2704,0.3701,0.0779,0.1687,0.098,3.0729,0.0595,-0.2372,11.7169,0.7142,4.364,-1.6526,2.3406,10.2462,-1.045,6.73,3.0821,-3.473,0.9243,10.9525,-1.2873,4.1131,0.85141,0,1698648005.8619,20
-0.2618,0.5098,0.0771,0.1037,0.0738,2.9776,0.2854,-0.509,11.6821,0.9243,4.5764,-1.8387,2.2283,10.4228,-0.6606,6.9529,3.7345,-3.4851,1.1717,11.2144,-1.0489,4.1206,0.884586,0,1698648005.8717,21
-0.2532,0.5793,0.0754,0.0241,0.3116,2.8559,0.5452,-0.7377,12.0457,0.9227,4.2906,-2.0898,1.991,10.6931,-0.3781,7.0798,4.0435,-3.544,1.3485,11.5632,-0.7319,4.2157,0.910354,0,1698648005.8825,22
-0.2454,0.5816,0.0717,-0.0982,0.6649,2.9104,0.7785,-0.9293,12.4915,0.8845,3.5479,-2.5234,1.7113,11.0008,-0.18,7.1386,3.7952,-3.4619,1.4125,11.8878,-0.393,4.308,0.930369,0,1698648005.8926,22
-0.2387,0.5855,0.0654,-0.2898,0.8218,2.9042,0.9486,-1.0893,12.5855,1.027,2.6233,-2.9267,1.4702,11.184,-0.117,7.0933,2.9794,-3.0325,1.3916,12.0523,-0.0993,4.3043,0.945916,0,1698648005.902,23
-0.2334,0.5892,0.0565,-0.4808,0.8534,2.8892,1.0246,-1.1631,12.5877,1.1692,1.8396,-3.4002,1.4465,11.1579,-0.0681,7.0267,1.9334,-2.2755,1.325,11.9777,0.182,4.228,0.957991,0,1698648005.9127,24
-0.2295,0.5478,0.0462,-0.6307,0.8165,2.8571,1.0341,-1.1335,12.391,1.2964,0.9769,-4.1625,1.4904,10.997,0.0744,6.8851,1.1055,-1.4574,1.2068,11.6685,0.4323,4.1497,0.967371,0,1698648005.9223,24
-0.2268,0.4825,0.0353,-0.7777,0.856,2.7043,0.9793,-0.9277,11.832,1.4407,0.2795,-4.5458,1.4682,10.7248,0.2618,6.5768,0.6917,-0.868,1.0707,11.2071,0.5789,4.0665,0.974656,0,1698648005.9322,25
-0.2239,0.4702,0.0236,-0.9437,0.9498,2.5123,0.8439,-0.7003,11.0327,1.6528,-0.0551,-4.4609,1.5353,10.2846,0.3879,6.403,0.5075,-0.5542,0.936,10.6654,0.5963,3.9689,0.980314,0,1698648005.9427,26
-0.2186,0.5198,0.0109,-1.0598,0.9834,2.4272,0.6202,-0.5167,10.3894,1.8207,-0.0985,-3.9817,1.6769,9.7016,0.3879,6.2074,0.355,-0.4494,0.7956,10.0802,0.5026,3.8718,0.984709,0,1698648005.952,27
-0.2113,0.5807,-0.0023,-1.1087,0.88,2.4121,0.3076,-0.3121,10.075,1.8113,-0.2064,-3.4816,1.8227,9.1394,0.3035,5.8136,0.1957,-0.5409,0.6524,9.4795,0.3328,3.7763,0.988123,0,1698648005.9621,27
-0.2021,0.6442,-0.0173,-1.1487,0.8031,2.4439,-0.0571,-0.1403,9.7733,1.8156,-0.2672,-2.9781,1.8371,8.664,0.1225,5.2891,0.1112,-0.8387,0.5404,8.9086,0.1568,3.7098,0.990774,0,1698648005.9722,28
-0.1914,0.7217,-0.0334,-1.228,0.803,2.5189,-0.3787,0.0511,9.1308,1.9896,-0.1005,-2.2385,1.7341,8.1905,0.0124,4.8248,0.2287,-1.416,0.4661,8.3835,0.0121,3.6449,0.992833,0,1698648005.9827,29
-0.1811,0.7871,-0.0486,-1.3072,0.6087,2.6299,-0.6064,0.214,8.7778,2.1342,0.1901,-1.5959,1.6702,7.8056,0.0661,4.6782,0.4555,-2.2599,0.4724,7.9395,-0.1465,3.5869,0.994433,0,1698648005.9928,29
-0.1722,0.7946,-0.0637,-1.3432,0.1841,2.7588,-0.7474,0.1718,9.1746,2.0468,0.9245,-1.0584,1.9283,7.5513,0.1639,4.6932,1.01,-3.3362,0.6034,7.6261,-0.2802,3.6042,0.995676,0,1698648006.002,30
-0.1653,0.7781,-0.0785,-1.396,-0.1584,2.8265,-0.8356,-0.0686,9.7103,1.9169,1.7744,-0.7389,2.2097,7.3343,0.3979,4.863,2.0092,-4.2771,0.7639,7.4691,-0.3358,3.7101,0.996641,0,1698648006.0114,31
-0.1597,0.7619,-0.0941,-1.5067,-0.3537,2.8834,-0.8829,-0.4114,9.8872,1.8465,2.5599,-0.5973,2.2007,7.2504,0.7317,5.1802,2.9181,-4.7659,0.9337,7.4759,-0.3524,3.8303,0.997391,0,1698648006.0218,32
-0.1544,0.7036,-0.1117,-1.6338,-0.5122,2.9829,-0.8616,-0.751,9.705,1.8303,3.4145,-0.5682,2.0736,7.2879,0.9808,5.4014,3.7128,-4.2389,1.5378,8.0241,-0.35,3.6698,0.997974,0,1698648006.0321,32
-0.1494,0.6367,-0.1304,-1.711,-0.6209,3.0091,-0.7974,-1.0681,9.4998,1.8637,4.0571,-0.4843,1.7908,7.4122,1.143,5.3869,3.9721,-4.6663,2.0615,8.1962,-0.8265,3.4352,0.998426,0,1698648006.0419,33
-0.1447,0.6057,-0.1493,-1.7472,-0.7248,2.9928,-0.71,-1.4075,9.2445,1.9193,4.4428,-0.2521,1.4535,7.7025,1.2918,5.3535,4.4684,-5.859,2.0464,8.0862,-0.9773,3.5935,0.998778,0,1698648006.0512,34
-0.1398,0.601,-0.1677,-1.8057,-0.8874,2.9657,-0.6174,-1.6585,8.9652,1.9061,4.8157,0.1379,1.2606,8.0795,1.4597,5.3912,5.7538,-5.0888,2.0492,8.5595,-0.3847,3.7991,0.99905,0,1698648006.0618,35
-0.1345,0.5858,-0.185,-1.8588,-0.9881,2.8892,-0.5319,-1.7883,8.8474,1.8333,5.0841,0.5517,1.3425,8.4004,1.6067,5.3964,6.5758,-2.8381,2.1494,9.0125,0.1044,3.8305,0.999262,0,1698648006.0725,35
-0.1292,0.5536,-0.2014,-1.8535,-0.9811,2.7565,-0.4731,-1.8017,8.8251,1.7987,5.0829,0.6719,1.6388,8.6248,1.6909,5.3451,6.9109,-0.6928,2.2554,9.3798,0.4928,3.7869,0.999427,0,1698648006.0817,36
-0.1241,0.5403,-0.2156,-1.7873,-0.8641,2.5725,-0.4606,-1.725,8.7464,1.7557,4.7402,0.421,1.9465,8.8032,1.6489,5.181,6.924,-0.102,1.9976,9.5342,0.9282,3.8999,0.999555,0,1698648006.0917,37
-0.1185,0.5348,-0.2277,-1.6835,-0.5439,2.3486,-0.4885,-1.7522,8.5609,1.7128,4.1724,-0.0159,2.1676,8.947,1.4973,4.9663,6.3445,-0.1032,1.9244,9.7922,1.0448,3.7051,0.999654,0,1698648006.1012,37
-0.1128,0.5216,-0.2391,-1.546,-0.2083,2.1296,-0.5365,-1.8445,8.3949,1.6056,3.6112,-0.501,2.3299,9.0272,1.3323,4.8101,4.4457,0.2085,1.5974,9.9675,1.1621,3.4108,0.999732,0,1698648006.1116,38
-0.1066,0.5235,-0.2497,-1.403,0.0711,1.9406,-0.6216,-1.8315,8.3852,1.4877,3.0773,-0.9885,2.399,9.0219,1.1477,4.7127,2.687,-0.6708,0.792,9.8271,1.2502,3.1525,0.999791,0,1698648006.1212,39
-0.0997,0.5475,-0.2595,-1.3142,0.3606,1.713,-0.7558,-1.7943,8.5108,1.4214,2.4776,-1.3442,2.2958,8.9447,0.9377,4.6401,2.0437,-2.361,0.4358,9.6424,1.0143,2.844,0.999837,0,1698648006.1317,40
-0.0928,0.593,-0.2687,-1.2311,0.5743,1.4841,-0.8993,-1.6848,8.7051,1.3149,1.8593,-1.5276,2.0187,8.8552,0.7589,4.5976,1.4468,-2.7049,0.2451,9.4166,0.9299,2.8398,0.999815,0,1698648006.1415,40
-0.0861,0.6205,-0.2772,-1.1267,0.7276,1.2825,-1.0405,-1.5574,8.9142,1.2317,1.3152,-1.6377,1.6314,8.7608,0.6633,4.5848,0.6773,-1.5294,0.1763,9.2452,0.8082,2.8052,0.961723,0,1698648006.1516,41
-0.08,0.6109,-0.2851,-1.0422,0.8125,1.114,-1.1767,-1.47,9.1222,1.1702,0.8141,-1.7376,1.1406,8.6856,0.6078,4.6089,0.2858,-0.0231,0.2524,9.1099,0.6587,2.7947,0.931167,0,1698648006.1611,42
-0.0743,0.5778,-0.2922,-0.9648,0.8282,0.9823,-1.2943,-1.3842,9.3876,1.0631,0.4156,-1.8076,0.6298,8.6533,0.5743,4.6409,0.7828,0.5162,0.3328,8.976,0.5495,2.7512,0.945493,0,1698648006.1714,42
-0.0687,0.5575,-0.2992,-0.9004,0.9316,0.8842,-1.603,-1.2577,9.4441,0.9856,0.1537,-1.9259,0.2023,8.6262,0.5934,4.6506,1.6162,-0.0841,0.3935,8.8672,0.4534,2.6344,0.955805,0,1698648006.1816,43
-0.0628,0.5797,-0.3068,-0.8651,0.8568,0.8736,-1.8121,-1.1188,9.3057,1.0424,0.6491,-1.7297,0.2947,8.3712,0.4829,4.6044,2.1732,-0.3441,0.5438,8.8358,0.3625,2.5484,0.961192,0,1698648006.1915,44
-0.0568,0.5908,-0.3147,-0.8425,0.5669,0.897,-1.7232,-1.078,9.3963,1.0617,1.7318,-1.3362,0.7892,8.2058,0.4385,4.4012,2.2539,0.2481,0.7474,8.8206,0.3143,2.5116,0.967216,0,1698648006.202,45
-0.0506,0.6019,-0.3228,-0.8161,0.3443,0.8631,-1.637,-1.0931,9.7569,0.9441,2.2507,-1.2717,1.1289,8.3453,0.5048,4.2054,2.2203,0.7661,0.8929,8.8325,0.3255,2.4709,0.974533,0,1698648006.2118,45
-0.0446,0.6337,-0.3309,-0.7896,0.1084,0.8223,-1.5028,-1.1594,9.9579,0.8565,2.3665,-1.2667,1.2956,8.4653,0.4774,4.141,2.3314,0.5327,0.9922,8.8984,0.3629,2.41,0.980219,0,1698648006.2223,46
-0.0387,0.6326,-0.3387,-0.7667,-0.1261,0.846,-1.309,-1.1964,9.9245,0.7614,2.4701,-1.095,1.3041,8.5576,0.4698,4.1241,2.4909,-0.2861,1.0897,9.001,0.4191,2.3367,0.984616,0,1698648006.2323,47
-0.0337,0.5845,-0.3459,-0.7348,-0.3686,0.8798,-1.0903,-1.2353,9.8229,0.6948,2.4304,-0.8296,1.2178,8.6288,0.5077,4.1553,2.4351,-0.7942,1.1579,9.137,0.5072,2.3241,0.988005,0,1698648006.2419,47
-0.0295,0.5188,-0.3518,-0.6798,-0.6048,0.8847,-0.8779,-1.288,9.6601,0.7062,2.2462,-0.5714,1.1056,8.722,0.5992,4.1742,2.2255,-0.7397,1.1869,9.252,0.6103,2.3315,0.990585,0,1698648006.252,48
-0.025,0.4985,-0.3569,-0.6322,-0.7839,0.8936,-0.6941,-1.3035,9.4762,0.757,1.9387,-0.3981,0.9964,8.8019,0.6761,4.1561,2.1113,-0.3813,1.1822,9.3157,0.7129,2.311,0.992584,0,1698648006.2618,49
-0.0202,0.5072,-0.3622,-0.6203,-0.9043,0.8972,-0.548,-1.2664,9.4298,0.7055,1.6112,-0.1297,0.8441,8.8303,0.6698,4.1088,2.1265,0.0377,1.1522,9.3582,0.7875,2.2801,0.994205,0,1698648006.2717,50
-0.0155,0.5035,-0.3671,-0.5909,-1.0115,0.9144,-0.4277,-1.2194,9.4881,0.5656,1.2929,0.4784,0.616,8.8422,0.6425,4.1261,2.1972,0.4919,1.1126,9.3634,0.8347,2.2369,0.995495,0,1698648006.2818,50
-0.0108,0.5125,-0.3704,-0.5104,-1.1084,0.9593,-0.3274,-1.2016,9.3904,0.5184,1.1257,1.3086,0.2913,8.8891,0.6001,4.1638,2.2666,1.044,1.0683,9.3293,0.8581,2.2095,0.9965,0,1698648006.2916,51
-0.0053,0.5532,-0.3721,-0.4188,-1.1657,1.0206,-0.2461,-1.1701,9.2394,0.4802,1.1945,2.0618,-0.0622,8.8959,0.513,4.094,2.2182,1.8138,1.0134,9.3308,0.8326,2.1932,0.997281,0,1698648006.3016,52
0.0006,0.5815,-0.3726,-0.3289,-1.1182,1.075,-0.1659,-1.1702,9.0414,0.4408,1.103,2.5555,-0.3897,8.832,0.4985,4.1312,2.0264,2.6188,0.9511,9.3381,0.7765,2.1694,0.997888,0,1698648006.3122,53
0.0069,0.5793,-0.3726,-0.2495,-1.0507,1.1054,-0.1078,-1.1768,8.9759,0.3867,0.8726,2.9911,-0.5358,8.8368,0.4568,4.2624,1.8561,2.9756,0.9053,9.2965,0.703,2.1418,0.99836,0,1698648006.3223,53
0.0134,0.6107,-0.3724,-0.1974,-1.0093,1.1264,-0.0687,-1.2161,9.1131,0.2966,0.974,3.2083,-0.3536,8.8259,0.357,4.2248,1.8371,2.7653,0.9038,9.2463,0.6298,2.1418,0.998726,0,1698648006.3321,54
0.0198,0.6364,-0.3723,-0.1486,-0.9473,1.1299,-0.0264,-1.3217,9.1932,0.2242,1.2232,3.0089,-0.0885,8.7094,0.3445,4.0962,1.8769,2.4085,0.9155,9.2294,0.5794,2.1508,0.99901,0,1698648006.3422,55
0.0256,0.6281,-0.3722,-0.1113,-0.9324,1.1344,0.003,-1.4069,9.2656,0.1284,1.2412,2.7808,0.1745,8.6694,0.3772,4.1414,1.8065,2.2754,0.9126,9.2396,0.5347,2.1464,0.999231,0,1698648006.3523,55
0.0313,0.6307,-0.3721,-0.081,-0.9225,1.1327,0.0063,-1.5007,9.2766,0.0479,1.3591,2.8115,0.3038,8.7539,0.3618,4.2001,1.6742,2.2708,0.8967,9.2499,0.5023,2.179,0.999403,0,1698648006.3625,56
0.0369,0.6144,-0.3716,-0.0477,-0.9259,1.1374,-0.0167,-1.663,9.2502,0.012,1.3229,2.6794,0.4016,8.7505,0.3308,4.2694,1.5501,2.2613,0.8673,9.2609,0.4863,2.2014,0.999536,0,1698648006.3729,57
0.0418,0.5795,-0.3699,0.0025,-1.0589,1.095,-0.0448,-1.8132,9.4561,-0.1267,1.0758,2.6118,0.349,8.7524,0.2901,4.4128,1.424,2.2139,0.8411,9.2771,0.4634,2.2174,0.999637,0,1698648006.3822,58
0.0457,0.5474,-0.3664,0.0988,-1.2296,0.9846,-0.0675,-1.914,9.7309,-0.289,1.0483,2.5567,0.1862,8.8009,0.2321,4.3777,1.3123,2.2299,0.8216,9.3045,0.4427,2.2721,0.999703,0,1698648006.3935,58
0.0494,0.5249,-0.3618,0.193,-1.253,0.8604,-0.0911,-2.0276,9.7522,-0.3777,0.8804,2.7056,0.1228,8.8111,0.2504,4.4087,1.2137,2.4443,0.7936,9.3551,0.4413,2.3595,0.999728,0,1698648006.403,59
0.0536,0.5025,-0.3571,0.266,-1.186,0.718,-0.1077,-2.0603,9.6284,-0.4422,0.6451,2.8656,-0.0193,8.8391,0.2349,4.4374,1.1549,2.7088,0.7736,9.4105,0.4415,2.4108,0.99975,0,1698648006.4127,60
0.0576,0.4809,-0.3518,0.3646,-1.0667,0.5306,-0.1019,-2.0656,9.4949,-0.3938,0.3474,2.4607,-0.1416,8.8677,0.2331,4.4444,1.1315,2.8095,0.7777,9.4305,0.4198,2.4001,0.999777,0,1698648006.422,60
0.0613,0.457,-0.3458,0.4692,-0.8675,0.3152,-0.0684,-2.0839,9.4684,-0.342,0.0019,2.0916,-0.2545,8.9365,0.2108,4.4386,1.1243,2.7189,0.7578,9.469,0.3987,2.3622,0.999758,0,1698648006.4313,61
0.0649,0.4362,-0.34,0.5269,-0.7085,0.1062,-0.0244,-2.0909,9.5106,-0.2592,-0.1454,1.6831,-0.3209,9.0059,0.1141,4.3619,1.1077,2.4739,0.7075,9.5596,0.3614,2.3627,0.999018,0,1698648006.442,62
0.0697,0.4776,-0.3347,0.5354,-0.6557,-0.0843,0.0139,-2.1284,9.5279,-0.1912,-0.1551,1.3334,-0.3741,9.0925,0.0868,4.3719,1.0172,2.1276,0.6547,9.6522,0.356,2.3881,0.957167,0,1698648006.4515,63
0.0751,0.5042,-0.3299,0.5413,-0.6028,-0.2493,0.0616,-2.1597,9.6848,-0.2926,-0.1259,1.0567,-0.4683,9.2265,0.122,4.4095,0.8745,1.7479,0.5899,9.7681,0.3964,2.4213,0.717609,0,1698648006.4614,63
0.0798,0.4734,-0.3256,0.5252,-0.5011,-0.4124,0.1473,-2.2056,9.9837,-0.4596,-0.2387,0.6653,-0.5748,9.3651,0.1852,4.4685,0.7441,1.3506,0.4986,9.9088,0.446,2.47,0.352435,0,1698648006.4714,64
0.084,0.4664,-0.3225,0.4602,-0.3575,-0.6158,0.224,-2.2285,10.1044,-0.5067,-0.3809,0.1943,-0.5969,9.5123,0.2252,4.5126,0.6786,0.9799,0.3834,10.0538,0.5096,2.4306,0.053386,0,1698648006.4822,65
0.0889,0.4984,-0.3207,0.3802,-0.216,-0.8428,0.2376,-2.1914,10.0351,-0.4812,-0.4837,-0.3275,-0.534,9.6026,0.2918,4.5263,0.6439,0.7149,0.2812,10.1694,0.5775,2.3586,-0.181734,0,1698648006.4921,65
0.0943,0.5041,-0.3199,0.3095,-0.1991,-1.0217,0.2277,-2.1298,10.1817,-0.5173,-0.4791,-0.7489,-0.4195,9.6278,0.3767,4.5335,0.4669,0.5748,0.2034,10.2495,0.6641,2.3457,-0.364426,0,1698648006.5022,66
0.0987,0.4512,-0.3191,0.2766,-0.2651,-1.1811,0.2413,-2.1217,10.5201,-0.454,-0.5114,-1.2425,-0.3221,9.745,0.4811,4.5947,0.0159,0.5272,0.103,10.4142,0.7643,2.4017,-0.506331,0,1698648006.5123,67
0.1016,0.3886,-0.317,0.2843,-0.2986,-1.3782,0.24,-2.1141,10.7198,-0.0902,-0.6251,-1.8704,-0.1697,9.984,0.5982,4.7766,0.1172,0.0037,0.0421,10.7323,0.8226,2.5297,-0.616553,0,1698648006.5218,68
0.1036,0.3169,-0.3137,0.3131,-0.2759,-1.585,0.1656,-1.9359,10.8731,0.4519,-0.4995,-2.2312,0.0466,10.3186,0.5596,4.9931,0.0971,-0.6151,-0.0061,11.1986,0.7399,2.7824,-0.702165,0,1698648006.5318,68
0.105,0.2566,-0.3093,0.3629,-0.2141,-1.7711,0.015,-1.6357,11.3121,0.8094,-0.1821,-2.41,0.1627,10.6552,0.334,5.1187,-0.6182,-1.146,-0.0172,11.5728,0.5644,3.0317,-0.768663,0,1698648006.5414,69
0.1057,0.2106,-0.3043,0.4071,-0.137,-1.8944,-0.1838,-1.457,11.841,0.9194,0.1037,-2.4943,0.2725,10.9289,0.1914,5.1764,-1.1866,-1.9095,-0.0061,11.6676,0.4519,3.1628,-0.820314,0,1698648006.552,70
0.1057,0.1624,-0.2991,0.4299,0.1947,-1.9246,-0.3774,-1.4134,12.0479,0.9336,0.2821,-2.3459,0.4779,11.1038,0.1399,5.4292,-2.1044,-2.1489,-0.0725,11.7056,0.2948,3.2224,-0.860432,0,1698648006.5612,71
0.1057,0.1261,-0.293,0.4827,0.5741,-1.9395,-0.5006,-1.4282,11.7635,1.0183,0.2384,-2.119,0.6809,11.1392,0.1133,5.6772,-3.0628,-2.1269,-0.1804,11.7168,0.126,3.3146,-0.891594,0,1698648006.5715,71
0.105,0.0788,-0.2858,0.5529,0.8902,-2.0474,-0.5382,-1.4135,10.6372,1.6005,-0.1858,-1.9607,0.6963,11.111,0.1372,5.7727,-3.445,-2.2981,-0.2991,11.7126,0.0659,3.5103,-0.915798,0,1698648006.5818,72
0.1026,-0.0185,-0.2783,0.6105,1.4502,-2.2718,-0.5351,-1.3497,9.0412,2.537,-1.1494,-1.8897,0.502,11.0373,0.2384,5.9025,-3.6464,-2.1567,-0.3521,11.8226,0.0939,3.7331,-0.934597,0,1698648006.5916,73
0.0977,-0.178,-0.2703,0.6605,1.8817,-2.3924,-0.4952,-1.2293,8.5755,2.9611,-2.3674,-2.3501,0.328,10.9411,0.3991,5.8684,-4.1309,-1.3132,-0.4392,11.813,0.2136,3.9489,-0.9492,0,1698648006.6012,73
0.0899,-0.3809,-0.2624,0.6976,2.0694,-2.394,-0.4276,-1.1831,9.1052,2.9419,-3.5674,-2.9438,0.256,10.7784,0.5108,5.735,-4.6104,-0.116,-0.6229,11.5366,0.2901,4.0286,-0.960542,0,1698648006.6111,74
0.0797,-0.5698,-0.2555,0.736,2.3985,-2.4762,-0.3537,-1.3166,9.1163,2.8511,-4.4969,-3.2029,0.2239,10.3837,0.5831,5.8866,-4.7578,0.9826,-0.8089,11.0763,0.2667,3.9318,-0.969352,0,1698648006.6208,75
0.0676,-0.7057,-0.2494,0.7307,2.7018,-2.5307,-0.2836,-1.2985,8.6034,2.6847,-5.0612,-3.2278,0.0584,9.7424,0.6136,6.0265,-4.7948,2.0635,-0.985,10.4956,0.1977,3.8245,-0.976195,0,1698648006.6307,76
0.0542,-0.8268,-0.2442,0.6663,2.6374,-2.5313,-0.2129,-1.182,8.3475,2.5765,-5.6299,-2.8577,-0.2986,9.122,0.7312,5.8353,-4.8644,3.1101,-1.1857,9.8906,0.1532,3.8072,-0.98151,0,1698648006.6405,76
0.0404,-0.9459,-0.2399,0.617,2.4936,-2.5948,-0.1231,-1.1774,8.401,2.4294,-6.0904,-2.3325,-0.6329,8.6743,0.9416,5.6588,-5.1196,3.7927,-1.4804,9.3402,0.1378,3.8167,-0.985638,0,1698648006.6511,77
0.0261,-1.0622,-0.2351,0.599,2.5047,-2.7379,-0.0337,-1.2104,8.3966,2.2732,-6.3714,-1.8351,-0.9582,8.296,1.0851,5.5871,-5.5973,3.936,-1.844,8.8734,0.0532,3.8083,-0.988845,0,1698648006.6612,78
0.0113,-1.153,-0.2294,0.5807,2.7468,-2.9019,0.0289,-1.1989,8.4681,2.0337,-6.4166,-1.3439,-1.2808,7.9533,1.053,5.4713,-6.0826,3.386,-2.1469,8.47,-0.1007,3.8096,-0.991335,0,1698648006.672,78
-0.0047,-1.2326,-0.223,0.5947,2.8394,-3.0437,0.0826,-1.1872,8.5425,1.7442,-6.2285,-0.866,-1.5663,7.6909,0.8821,5.2945,-6.382,2.1935,-2.3549,8.1336,-0.278,3.8266,-0.99327,0,1698648006.6821,79
-0.0219,-1.3147,-0.2156,0.647,2.5559,-3.2416,0.15,-1.2188,8.5793,1.6295,-5.9656,-0.4148,-1.8179,7.5178,0.6716,5.189,-6.5386,0.652,-2.4585,7.8847,-0.5092,3.8558,-0.994773,0,1698648006.6922,80
-0.0403,-1.4056,-0.2075,0.682,2.2267,-3.4823,0.2133,-1.1824,8.8398,1.5391,-5.5561,-0.0771,-1.9851,7.4256,0.4448,5.219,-6.6782,-1.0268,-2.4495,7.7177,-0.7559,3.8812,-0.99594,0,1698648006.702,81
-0.0601,-1.5145,-0.1998,0.7062,1.9199,-3.7758,0.271,-1.178,9.1552,1.4558,-5.0172,0.1085,-2.0656,7.4306,0.2405,5.3482,-6.7253,-2.7049,-2.3709,7.6501,-0.9662,3.8846,-0.996846,0,1698648006.7119,81
-0.0805,-1.5899,-0.1925,0.7261,1.6713,-4.1162,0.3031,-1.1686,9.2999,1.441,-4.4462,0.1871,-2.1196,7.5391,0.0856,5.5009,-6.6664,-4.1583,-2.2681,7.7186,-1.1457,3.8763,-0.99755,0,1698648006.7214,82
-0.1007,-1.6684,-0.186,0.7225,1.4697,-4.4394,0.2956,-1.0296,9.3969,1.5065,-3.9012,0.1637,-2.1769,7.6786,-0.0556,5.6486,-6.4596,-5.3443,-2.1473,7.9004,-1.2858,3.8522,-0.998097,0,1698648006.7324,83
-0.1214,-1.7796,-0.1802,0.6876,1.325,-4.7638,0.2574,-0.8633,9.4994,1.6218,-3.4148,0.1345,-2.253,7.8482,-0.1995,5.7765,-6.0783,-6.2254,-2.0024,8.1753,-1.3765,3.8373,-0.998522,0,1698648006.7427,83
-0.142,-1.8192,-0.1741,0.666,1.1846,-5.0063,0.2005,-0.7708,9.7076,1.5673,-2.9851,0.1195,-2.3129,8.0944,-0.3123,5.8758,-5.719,-6.5451,-1.843,8.5301,-1.4336,3.8224,-0.998852,0,1698648006.7533,84
-0.1613,-1.8043,-0.168,0.6686,0.9715,-5.0549,0.1367,-0.5966,10.0917,1.2788,-2.6147,0.0695,-2.3151,8.3911,-0.4138,5.9414,-5.4102,-6.375,-1.6527,8.8897,-1.4597,3.782,-0.999108,0,1698648006.7633,85
-0.1792,-1.7784,-0.162,0.6736,0.7489,-4.9598,0.0769,-0.3022,10.3158,0.9783,-2.3994,-0.0205,-2.2469,8.65,-0.5221,5.9678,-5.0254,-5.9914,-1.4282,9.1746,-1.4536,3.6788,-0.999307,0,1698648006.7738,86
-0.196,-1.697,-0.1555,0.6841,0.6518,-4.8143,0.0602,-0.0348,10.1937,0.8475,-2.3847,-0.1654,-2.1139,8.7679,-0.6575,5.894,-4.7223,-5.4583,-1.2274,9.483,-1.63,3.3179,-0.999462,0,1698648006.783,86
-0.2113,-1.6422,-0.1488,0.6901,0.7435,-4.674,0.0857,0.2149,9.8746,0.9723,-2.5855,-0.3742,-1.9518,8.7459,-0.8217,5.719,-3.9406,-5.1823,-1.0774,9.4996,-1.6385,2.5154,-0.999582,0,1698648006.7929,87
-0.2251,-1.5885,-0.1418,0.7296,0.8675,-4.4935,0.1489,0.3713,9.5757,1.1321,-3.0073,-0.6498,-1.7457,8.666,-0.9549,5.5024,-3.2916,-3.5175,-0.9736,9.5781,-1.3294,2.0155,-0.999675,0,1698648006.8024,88
-0.2384,-1.5016,-0.1337,0.7744,0.9468,-4.2493,0.2406,0.4659,9.4135,1.1434,-3.5659,-0.9328,-1.5056,8.6293,-1.0458,5.2951,-3.1566,-0.1281,-0.8683,9.8033,-1.2163,2.1209,-0.999748,0,1698648006.8117,88
-0.2507,-1.4487,-0.1258,0.8073,1.0117,-3.9999,0.3596,0.5404,9.4528,1.0968,-3.9708,-0.9797,-1.3284,8.6024,-1.1832,5.0278,-3.0176,2.739,-0.7942,9.6873,-1.2261,2.3027,-0.999804,0,1698648006.8216,89
-0.2629,-1.4296,-0.1174,0.8446,1.0716,-3.7194,0.5261,0.4901,9.4846,1.0531,-4.2537,-0.8243,-1.2368,8.5436,-1.2896,4.7629,-3.0008,3.9075,-0.7818,9.5284,-1.2285,2.3846,-0.999848,0,1698648006.8317,90
-0.2748,-1.4079,-0.1085,0.8488,1.0516,-3.4009,0.6989,0.4827,9.5499,0.9532,-4.5255,-0.6645,-1.2211,8.4955,-1.3023,4.6136,-2.8063,3.3621,-0.8915,9.39,-1.1874,2.3627,-0.999882,0,1698648006.8419,91
-0.2861,-1.3543,-0.0995,0.8523,1.008,-3.0989,0.8655,0.5898,9.5622,0.9047,-4.6301,-0.4747,-1.2557,8.456,-1.3194,4.5037,-2.887,2.7161,-1.1505,9.2943,-1.1204,2.3871,-0.999908,0,1698648006.8514,91
-0.2966,-1.2672,-0.0907,0.8658,0.9485,-2.8133,1.018,0.6273,9.5693,0.901,-4.5417,-0.2778,-1.2588,8.3887,-1.3548,4.436,-3.38,2.7947,-1.4225,9.2262,-1.1243,2.5065,-0.999929,0,1698648006.8615,92
-0.3064,-1.1568,-0.0823,0.862,0.7813,-2.4943,1.1474,0.6589,9.6839,0.8383,-4.3487,-0.0389,-1.2697,8.2974,-1.4128,4.4204,-3.8345,2.9827,-1.6337,9.1457,-1.1834,2.6547,-0.999945,0,1698648006.8716,93
-0.3153,-1.0514,-0.0744,0.8235,0.6319,-2.1937,1.2437,0.7085,9.7699,0.7845,-4.0862,0.3956,-1.3881,8.2596,-1.5019,4.3673,-3.7095,2.7052,-1.7568,9.085,-1.266,2.7478,-0.999957,0,1698648006.8852,94
-0.324,-0.9759,-0.0662,0.7802,0.5788,-1.9141,1.3236,0.7112,9.9362,0.6831,-3.9259,0.9222,-1.5047,8.268,-1.573,4.4784,-3.1744,2.0235,-1.8252,9.0689,-1.3531,2.8134,-0.999967,0,1698648006.8952,94
-0.3316,-0.9105,-0.059,0.7376,0.478,-1.5905,1.3908,0.712,9.9723,0.5455,-3.6462,1.5852,-1.6192,8.2683,-1.6053,4.5885,-2.7391,1.1284,-1.8903,9.0601,-1.4247,2.8358,-0.999974,0,1698648006.9053,95
-0.3368,-0.8054,-0.0537,0.6861,0.2377,-1.2846,1.4123,0.7703,9.9929,0.4066,-3.0889,2.3643,-1.7891,8.3431,-1.6111,4.5634,-2.3661,0.1937,-1.9723,9.04,-1.467,2.834,-0.99998,0,1698648006.9151,96
-0.3406,-0.6835,-0.0491,0.6374,0.0724,-1.0342,1.412,0.7707,9.9642,0.3334,-2.5624,2.8962,-1.9662,8.3278,-1.687,4.7098,-2.0449,-0.5621,-2.0489,9.0096,-1.4977,2.8146,-0.999984,0,1698648006.926,96
-0.3435,-0.5805,-0.044,0.6071,0.0105,-0.7911,1.4143,0.7112,9.6533,0.3859,-1.9216,3.571,-2.1549,8.176,-1.7277,4.6426,-1.8141,-0.9285,-2.0981,8.9836,-1.5117,2.7822,-0.999988,0,1698648006.9363,97
-0.346,-0.4922,-0.0383,0.6065,-0.0453,-0.5912,1.4058,0.6638,9.2961,0.4489,-1.3063,4.205,-2.2026,8.1616,-1.7896,4.6586,-1.6919,-0.9335,-2.1039,8.9583,-1.5231,2.7557,-0.999991,0,1698648006.9458,98
-0.3474,-0.4027,-0.0333,0.5811,-0.2118,-0.3076,1.2547,0.4856,9.1466,0.3302,-0.2668,4.8387,-2.5714,8.2028,-2.0171,4.747,-1.6481,-0.5827,-2.0512,8.9026,-1.5248,2.6995,-0.999993,0,1698648006.9584,99
-0.3478,-0.3132,-0.028,0.558,-0.3568,-0.1825,1.1336,0.4261,9.2328,0.1915,-0.0534,4.98,-2.4154,8.2067,-2.1191,5.0048,-1.6866,-0.3215,-1.9874,8.893,-1.5439,2.6519,-0.999994,0,1698648006.9685,99
-0.3478,-0.2433,-0.022,0.5632,-0.4584,-0.1125,0.9995,0.3972,9.1772,0.1164,0.3443,4.5819,-2.0879,8.1619,-2.0917,4.8691,-1.6321,-0.094,-1.8841,8.8941,-1.5572,2.6059,-0.999996,0,1698648006.9787,0
-0.3478,-0.1999,-0.0161,0.5522,-0.5202,-0.0761,0.8672,0.3834,9.1342,0.0588,0.7306,4.2028,-1.9452,8.0721,-2.0154,4.7792,-1.4508,0.1101,-1.7409,8.9169,-1.5779,2.5639,-0.999997,0,1698648006.9883,1
-0.3477,-0.1744,-0.0105,0.5684,-0.6177,-0.0393,0.7363,0.4108,9.1802,-0.0211,1.289,4.3422,-2.0687,8.029,-1.9363,4.7117,-1.195,0.3828,-1.5632,8.9552,-1.5692,2.5242,-0.999997,0,1698648006.9987,2
-0.3476,-0.1396,-0.0048,0.6119,-0.7105,-0.0081,0.6466,0.3897,9.3531,-0.1041,1.738,4.3626,-2.1817,7.9908,-1.7891,4.6104,-0.9409,0.8187,-1.3816,8.9878,-1.5172,2.4735,-0.999967,0,1698648007.0082,2
-0.3468,-0.0852,0.0011,0.6137,-0.8132,0.0331,0.5471,0.4133,9.3743,-0.1186,1.8592,3.908,-2.0615,7.9386,-1.6226,4.6301,-0.6865,1.3345,-1.2236,9.0105,-1.4715,2.4194,-0.997333,0,1698648007.0193,3
-0.345,-0.0209,0.0068,0.5981,-1.0029,0.0822,0.417,0.4908,9.4019,-0.206,1.7395,3.4749,-1.8207,7.924,-1.5714,4.9009,-0.4386,1.8153,-1.0923,9.0151,-1.455,2.3881,-0.992635,0,1698648007.0299,4
-0.3422,0.0762,0.0124,0.5886,-1.1418,0.1263,0.2946,0.5367,9.4927,-0.3343,1.7581,3.3779,-1.7164,8.0124,-1.6035,5.0856,-0.1881,2.2339,-0.9827,9.0042,-1.4266,2.3617,-0.984608,0,1698648007.0397,5
-0.338,0.2097,0.0182,0.5814,-1.0971,0.1691,0.1663,0.5757,9.2389,-0.2901,1.9745,2.9557,-1.5279,8.1075,-1.622,4.9938,0.1437,2.5923,-0.8916,9.0021,-1.3963,2.3206,-0.975857,0,1698648007.0493,6
-0.3325,0.3047,0.0242,0.5837,-0.9712,0.2287,0.0777,0.5952,9.0052,-0.2208,2.0029,2.2963,-1.2691,8.1367,-1.6171,4.9728,0.5855,2.9132,-0.8063,9.0115,-1.3937,2.2988,-0.931427,0,1698648007.0598,6
-0.326,0.3611,0.0304,0.5994,-0.8538,0.3278,0.043,0.6155,8.9804,-0.2218,1.9832,1.8634,-1.1081,8.1674,-1.5882,4.9974,1.1059,3.1762,-0.712,9.0265,-1.3884,2.2779,-0.863974,0,1698648007.0701,7
-0.3193,0.4296,0.0375,0.6033,-0.7762,0.4517,0.028,0.6991,8.9589,-0.21,1.973,1.511,-0.9583,8.1907,-1.5251,5.0226,1.6447,3.3446,-0.614,9.0611,-1.3474,2.253,-0.632942,0,1698648007.0809,8
-0.3128,0.458,0.0446,0.6101,-0.7219,0.5769,0.0146,0.8325,9.1063,-0.1797,1.9463,1.2849,-0.8446,8.2198,-1.4633,5.0649,2.0795,3.4286,-0.5353,9.1043,-1.2701,2.2322,-0.268366,0,1698648007.0905,9
-0.3074,0.4354,0.0506,0.6176,-0.6449,0.698,0.0375,0.8914,9.2684,-0.1324,1.9886,1.1255,-0.7741,8.2865,-1.3821,5.1109,2.2816,3.4759,-0.4878,9.1596,-1.1721,2.2331,0.014823,0,1698648007.1003,10
-0.3035,0.4073,0.0561,0.604,-0.5867,0.8023,0.0774,0.9295,9.3742,-0.0817,2.0854,0.9762,-0.7211,8.3434,-1.2766,5.2078,2.1813,3.5723,-0.4782,9.2201,-1.077,2.2837,0.234784,0,1698648007.1104,10
-0.3008,0.3589,0.0605,0.5469,-0.5918,0.9089,0.0922,0.9742,9.57,-0.1015,2.1623,0.6829,-0.6211,8.3688,-1.1826,5.3555,1.8622,3.7409,-0.4878,9.2519,-1.0064,2.3455,0.405634,0,1698648007.1209,11
-0.2991,0.2992,0.0632,0.4576,-0.6025,1.0309,0.0858,0.9981,9.6478,-0.1545,2.1999,0.1952,-0.4411,8.406,-1.14,5.4518,1.5385,3.9128,-0.4825,9.2586,-0.9724,2.4064,0.538338,0,1698648007.1308,12
-0.2986,0.2264,0.065,0.3854,-0.6637,1.1648,0.0791,0.9856,9.589,-0.1906,2.2248,-0.0328,-0.2698,8.4653,-1.1685,5.4595,1.3289,4.0301,-0.4391,9.254,-0.9756,2.467,0.641411,0,1698648007.1402,13
-0.2988,0.1692,0.0667,0.33,-0.7326,1.2868,0.0568,0.9379,9.5637,-0.2622,2.187,-0.1332,-0.1027,8.4946,-1.1839,5.4884,1.2419,4.0437,-0.3424,9.2547,-0.9963,2.5454,0.721468,0,1698648007.1502,13
-0.2988,0.1327,0.0691,0.2916,-0.6335,1.384,0.0081,0.9303,9.5119,-0.3055,2.0026,-0.4889,0.1251,8.5322,-1.1857,5.5478,1.2058,3.8659,-0.2051,9.2825,-1.053,2.6936,0.783647,0,1698648007.1604,14
-0.2989,0.0873,0.0726,0.2815,-0.3827,1.4766,-0.0281,0.9332,9.3916,-0.197,1.7759,-0.871,0.3413,8.6861,-1.2526,5.6212,1.24,3.2906,-0.02,9.4289,-1.1329,2.978,0.831942,0,1698648007.1709,15
-0.2989,0.0688,0.0765,0.2835,-0.0916,1.5502,-0.0264,0.7754,9.61,0.0218,1.6304,-1.2094,0.539,9.0143,-1.2925,5.7915,1.4242,2.2413,0.2133,9.7351,-1.2002,3.3864,0.86946,0,1698648007.1806,16
-0.2989,0.0626,0.0798,0.2566,0.0782,1.6279,0.0507,0.4226,10.4555,0.1543,1.7331,-1.4366,0.6891,9.5496,-1.1947,6.0016,1.7889,0.9797,0.4805,10.1712,-1.2349,3.7767,0.898605,0,1698648007.1903,17
-0.2989,0.0486,0.0813,0.2088,0.0857,1.649,0.2743,-0.1491,11.5277,0.281,2.1102,-1.7024,0.764,10.1509,-0.8712,6.2915,2.3585,-0.1365,0.8014,10.6315,-1.1528,4.0694,0.921244,0,1698648007.2004,17
-0.2989,0.0403,0.0814,0.1633,0.0072,1.5708,0.6457,-0.8024,12.1306,0.4272,2.8982,-2.0385,0.7387,10.5246,-0.4598,6.6267,2.8188,-0.8084,1.1018,11.0118,-0.8816,4.2687,0.938828,0,1698648007.2107,18
-0.2989,0.0387,0.081,0.1121,-0.0879,1.4035,1.0372,-1.1661,12.1603,0.4457,3.3424,-2.5475,0.5605,10.7011,-0.0217,6.9441,2.9189,-1.0661,1.2985,11.3684,-0.478,4.3834,0.952486,0,1698648007.2214,19
-0.2988,0.0418,0.0797,0.0378,-0.0271,1.156,1.3516,-1.1738,11.7201,0.6091,2.9222,-3.0911,0.2235,10.9362,0.5274,7.2413,2.6968,-1.21,1.3575,11.7213,-0.0084,4.4986,0.963094,0,1698648007.2317,20
-0.2989,0.0243,0.0764,-0.0651,0.1744,0.8922,1.548,-0.912,11.3262,0.8914,2.4169,-3.2961,-0.028,11.2054,1.0058,7.5008,2.1075,-1.3516,1.2823,12.0384,0.418,4.6248,0.971334,0,1698648007.2413,21
-0.2989,0.0096,0.0711,-0.1969,0.388,0.6404,1.5898,-0.5897,11.3291,1.1467,1.6059,-3.624,0.0127,11.3304,1.2218,7.6553,1.0465,-1.4531,1.1319,12.2227,0.698,4.6712,0.977699,0,1698648007.2516,21
-0.2988,0.0169,0.0639,-0.3377,0.6195,0.5019,1.4459,-0.2635,11.4212,1.31,0.5696,-3.9222,0.2821,11.259,1.0888,7.4378,-0.4611,-1.4049,0.9256,12.2039,0.8422,4.6551,0.938721,0,1698648007.2623,22
-0.2988,0.0098,0.0547,-0.4504,0.83,0.5153,1.1756,0.087,11.377,1.4144,-0.2133,-4.06,0.7998,11.1571,0.8458,6.9903,-2.0071,-1.2047,0.7065,11.945,0.866,4.5852,0.685211,0,1698648007.2726,23
-0.2982,0.0357,0.0445,-0.5771,1.0182,0.6937,0.8847,0.2781,11.3104,1.5219,-0.9202,-4.3427,1.3775,10.9967,0.5611,6.6663,-3.1218,-1.0757,0.4827,11.4844,0.7695,4.5121,0.308954,0,1698648007.282,24
-0.2955,0.1435,0.0339,-0.6922,0.8653,1.0188,0.5479,0.552,10.4554,1.9604,-1.4471,-4.2989,1.8977,10.6171,0.2667,6.4851,-3.536,-1.2217,0.3114,10.9286,0.5359,4.4899,0.016703,0,1698648007.2922,25
-0.2889,0.2953,0.022,-0.8167,0.5854,1.2006,0.11,0.8462,9.7064,2.5274,-1.7234,-3.7646,2.1987,10.1921,0.1458,6.4885,-3.2467,-1.6317,0.2627,10.3164,0.1769,4.467,-0.210297,0,1698648007.3026,25
-0.2776,0.4712,0.0086,-0.9767,0.5249,1.4373,-0.3452,0.9687,9.7938,2.682,-1.6713,-3.1894,2.3797,9.8107,0.086,6.5972,-2.4698,-2.1078,0.3067,9.7164,-0.2262,4.4257,-0.386614,0,1698648007.3121,26
-0.2639,0.6554,-0.0064,-1.0777,0.5145,1.7353,-0.686,0.9577,9.8398,2.8035,-1.1732,-2.4206,2.5833,9.4417,-0.0111,6.5277,-1.3405,-2.6642,0.4466,9.1828,-0.5567,4.3522,-0.348145,0,1698648007.3227,27
-0.2491,0.8345,-0.0227,-1.1591,0.6819,1.9369,-0.8655,0.8433,9.864,2.9379,-0.6304,-1.687,2.727,9.1661,-0.0647,6.2468,0.0761,-3.4194,0.6719,8.7626,-0.746,4.2964,-0.094994,0,1698648007.3318,28
-0.2352,0.9411,-0.0393,-1.2848,0.881,2.2444,-0.8959,0.7031,9.5373,3.0659,-0.0826,-1.3831,2.9698,8.9122,-0.0649,5.9164,1.6322,-4.2488,0.9552,8.5149,-0.7931,4.2526,0.149485,0,1698648007.3414,29
-0.2235,0.9892,-0.0567,-1.4293,0.7707,2.5701,-0.8146,0.521,9.1926,3.1302,0.6419,-1.2059,3.2684,8.6407,-0.0321,5.7244,3.0685,-4.853,1.2971,8.4261,-0.7551,4.1776,0.33938,0,1698648007.3514,29
-0.2131,1.0224,-0.0758,-1.5636,0.4191,2.8572,-0.6637,0.3044,9.1032,3.0089,1.284,-1.0213,3.4883,8.4565,0.0938,5.6627,4.2191,-5.0368,1.6828,8.4323,-0.6617,4.1301,0.486877,0,1698648007.3614,30
-0.2038,1.0023,-0.0961,-1.6533,0.0215,2.8373,-0.5158,-0.0431,9.0847,2.8671,1.8338,-0.7553,3.5143,8.3947,0.2739,5.6238,5.0667,-4.7578,2.0625,8.4951,-0.5341,4.0993,0.601442,0,1698648007.3714,31
-0.195,0.9926,-0.1177,-1.7225,-0.4483,2.8279,-0.4206,-0.4349,9.1699,2.5613,2.3035,-0.4114,3.2959,8.4018,0.4379,5.5471,5.6867,-4.1149,2.3966,8.5578,-0.4027,4.0736,0.690428,0,1698648007.3816,32
-0.186,0.9797,-0.1404,-1.8626,-0.9206,3.0591,-0.402,-0.9183,9.4121,2.181,2.7578,0.0934,2.8629,8.4064,0.5652,5.4186,6.0908,-3.2211,2.674,8.6001,-0.2471,4.0717,0.759546,0,1698648007.3921,33
-0.1767,0.9575,-0.1647,-2.0207,-1.2679,3.1612,-0.4847,-1.4887,9.6385,1.8897,3.0638,0.8179,2.3297,8.3983,0.6839,5.2915,6.1745,-2.2864,2.8495,8.6401,-0.0804,4.0863,0.813233,0,1698648007.4022,33
-0.1673,0.9347,-0.188,-2.1145,-1.4566,3.1612,-0.6307,-1.9651,9.6253,1.6078,3.1131,1.5434,1.8934,8.388,0.8138,5.2219,5.7325,-1.4276,2.9286,8.7095,0.0676,4.103,0.854932,0,1698648007.4118,34
-0.1586,0.9015,-0.2074,-2.1274,-1.4081,3.0684,-0.82,-2.198,9.2495,1.4303,3.1318,2.0012,1.6884,8.3816,0.8933,5.1134,5.0126,-0.8712,2.9577,8.8122,0.2032,4.1066,0.887322,0,1698648007.4216,35
-0.1504,0.8779,-0.225,-2.0493,-1.2076,2.836,-0.9977,-2.2829,8.762,1.425,3.1489,2.1676,1.6322,8.3742,0.9096,4.9141,4.6579,-0.8013,2.9607,8.9182,0.3269,4.1182,0.912479,0,1698648007.4324,36
-0.1426,0.8391,-0.2425,-1.9252,-0.9812,2.5235,-1.1417,-2.3313,8.5837,1.5037,3.1579,2.1793,1.534,8.3538,0.953,4.7644,4.4429,-0.9106,2.7782,9.2622,0.5996,4.1492,0.93202,0,1698648007.442,37
-0.1351,0.7812,-0.2582,-1.8025,-0.6553,2.1793,-1.2893,-2.1999,8.5102,1.5322,2.9655,2.052,1.3112,8.3141,1.0544,4.6992,5.0624,-1.9891,2.0909,9.4984,0.8345,3.918,0.947198,0,1698648007.4518,37
-0.128,0.7662,-0.2706,-1.6732,-0.323,1.86,-1.4066,-2.0426,8.3513,1.5229,2.6056,1.8202,1.0486,8.2531,1.1449,4.6649,6.9063,-3.5018,1.4362,9.3825,0.8442,3.6344,0.958987,0,1698648007.4613,38
-0.1207,0.7972,-0.2814,-1.5563,-0.0086,1.5907,-1.2633,-1.9236,8.2666,1.4667,2.3542,1.5865,0.8089,8.1629,1.1718,4.671,8.0266,-3.1555,1.2463,9.2914,0.8123,3.6061,0.968144,0,1698648007.4714,39
-0.1128,0.7937,-0.2913,-1.4499,0.3106,1.3346,-1.129,-1.8816,8.4085,1.2977,2.1665,1.4544,0.5801,8.0501,1.1754,4.7045,7.9627,-1.5223,1.1482,9.1432,0.7997,3.5175,0.975218,0,1698648007.4812,40
-0.1045,0.806,-0.3,-1.3424,0.5841,1.1868,-1.2147,-1.8109,8.5711,1.0857,1.9969,1.402,0.3546,7.9265,1.187,4.7296,8.0359,-0.8707,0.9528,8.9059,0.8418,3.2464,0.979796,0,1698648007.4914,40
-0.0957,0.8257,-0.308,-1.2572,0.8187,1.1215,-1.2446,-1.7112,8.5945,0.9857,1.8788,1.3349,0.1361,7.8641,1.2091,4.7291,8.2154,-1.5329,0.6424,8.6732,0.9055,2.896,0.982371,0,1698648007.5011,41
-0.0866,0.8317,-0.3157,-1.1722,0.9583,1.052,-1.2269,-1.6403,8.7083,0.961,1.7692,1.1934,-0.0533,7.872,1.1977,4.7049,7.6893,-2.3122,0.3247,8.548,0.9259,2.5742,0.985248,0,1698648007.5115,42
-0.0778,0.8603,-0.3234,-1.0992,1.0105,1.0014,-1.2064,-1.5456,9.0515,0.8883,1.6244,0.6565,0.2598,7.9931,1.0875,4.9104,6.3339,-2.5537,0.2091,8.5337,0.8663,2.3346,0.988497,0,1698648007.5214,43
-0.0692,0.873,-0.3313,-1.031,0.9811,1.0184,-1.1802,-1.5084,9.2261,0.8375,1.6602,-0.1176,0.8421,8.1588,0.9798,5.0149,4.9564,-2.5274,0.2531,8.5423,0.8471,2.2025,0.99106,0,1698648007.5316,44
-0.0608,0.855,-0.3391,-0.9879,0.9413,1.0043,-1.1505,-1.5145,9.2227,0.8245,1.7869,-0.9021,1.2203,8.184,0.9749,4.8737,4.218,-2.4984,0.3581,8.6081,0.858,2.0919,0.993047,0,1698648007.5413,44
-0.0529,0.8467,-0.347,-0.958,0.7502,1.0291,-1.1053,-1.4822,9.3398,0.6936,1.8529,-1.802,1.6257,8.1678,0.9369,4.8271,3.8668,-2.176,0.5009,8.6391,0.8312,2.041,0.994201,0,1698648007.5515,45
-0.0455,0.8439,-0.3546,-0.9285,0.5088,1.0842,-1.0344,-1.5268,9.3592,0.6183,1.7618,-2.7243,1.915,8.256,0.89,4.7391,3.6861,-1.3179,0.6324,8.7343,0.8214,2.0116,0.942555,0,1698648007.5614,46
-0.0383,0.7996,-0.3619,-0.8928,0.3443,1.0989,-0.9682,-1.6165,9.3956,0.6045,1.5317,-3.4441,2.0647,8.3566,0.8726,4.6533,3.3626,-0.2526,0.7498,8.9344,0.8536,1.9826,0.893565,0,1698648007.5718,47
-0.0313,0.7562,-0.3687,-0.8449,0.1271,1.1188,-0.9006,-1.7027,9.1405,0.2966,1.5166,-3.641,2.129,8.4232,0.8462,4.564,3.0507,0.2348,0.7864,9.0508,0.9155,1.9254,0.907925,0,1698648007.5841,48
-0.0237,0.7481,-0.3751,-0.7858,-0.0697,1.0908,-0.8234,-1.7844,8.6351,0.2718,1.5296,-3.557,2.0878,8.5209,0.8723,4.3936,2.9219,0.0732,0.8004,9.0913,0.9595,1.8063,0.927955,0,1698648007.5939,48
-0.0166,0.7257,-0.3802,-0.6818,-0.2985,1.0793,-0.7115,-1.7674,8.5049,0.4773,1.2849,-3.4116,1.9791,8.6396,0.8952,4.1284,2.6777,-0.193,0.7866,9.0954,1.0277,1.7558,0.91142,0,1698648007.6045,49
-0.0105,0.6945,-0.3835,-0.5627,-0.4301,0.9877,-0.6117,-1.7822,8.6353,0.4129,0.9934,-2.9553,1.7438,8.7251,0.8536,3.9441,2.2674,-0.2796,0.7315,9.1171,1.101,1.7054,0.694271,0,1698648007.6143,50
-0.0043,0.6734,-0.3851,-0.4384,-0.4932,0.937,-0.5189,-1.7532,8.5329,0.3715,0.8148,-2.3197,1.4554,8.7474,0.7935,3.8522,1.8192,-0.2599,0.7066,9.1502,1.1509,1.5964,0.506591,0,1698648007.6238,51
0.0017,0.6501,-0.3851,-0.3302,-0.589,0.9325,-0.4289,-1.6394,8.4571,0.3711,0.6973,-1.8328,1.268,8.7353,0.7161,3.7448,1.4633,-0.1995,0.7094,9.1447,1.1539,1.4562,0.564693,0,1698648007.6328,52
0.0074,0.6446,-0.3849,-0.2467,-0.6575,0.8541,-0.371,-1.4955,8.5461,0.3508,0.6495,-1.4213,1.1889,8.6962,0.6018,3.6851,1.1495,0.086,0.7176,9.1086,1.0918,1.3203,0.655511,0,1698648007.6423,52
0.0134,0.6675,-0.3847,-0.1837,-0.703,0.7974,-0.32,-1.3872,8.5451,0.2911,0.6661,-0.9663,1.1582,8.629,0.4886,3.6668,0.817,0.5175,0.7563,9.0578,1.0078,1.207,0.685135,0,1698648007.6521,53
0.0199,0.6808,-0.3841,-0.1264,-0.7196,0.7602,-0.2565,-1.3442,8.6248,0.1628,0.6977,-0.4978,1.1445,8.584,0.4044,3.7002,0.4941,0.983,0.806,9.0013,0.9203,1.1767,0.589502,0,1698648007.6621,54
0.0269,0.6747,-0.3829,-0.0487,-0.7044,0.6793,-0.2166,-1.3613,8.8591,0.1416,0.718,-0.1722,1.1569,8.5868,0.3474,3.681,0.1656,1.5712,0.8216,8.9686,0.8553,1.2572,0.389617,0,1698648007.6724,55
0.0346,0.7,-0.3799,0.0712,-0.8443,0.654,-0.1703,-1.2624,8.8105,0.1314,0.8249,0.1488,1.1444,8.6191,0.2857,3.5725,-0.1372,2.2855,0.8218,8.9827,0.8078,1.3953,0.192526,0,1698648007.6829,56
0.0424,0.704,-0.3749,0.2323,-0.993,0.6386,-0.0669,-1.286,8.67,0.0526,1.0179,0.8618,0.9804,8.6733,0.2514,3.5315,-0.3229,2.8931,0.8347,9.0167,0.7641,1.5475,0.022428,0,1698648007.6924,56
0.0493,0.6807,-0.3676,0.3829,-0.9184,0.5908,0.0542,-1.5046,8.6088,0.0579,0.9735,1.5758,0.704,8.7417,0.272,3.768,-0.4502,3.3812,0.837,9.0792,0.7142,1.7141,-0.136182,0,1698648007.7019,57
0.0558,0.6772,-0.3583,0.528,-0.8205,0.5836,0.1679,-1.6118,8.5388,0.0134,0.6578,1.8261,0.531,8.8533,0.2948,4.0907,-0.4306,3.5584,0.8406,9.1967,0.618,1.7874,-0.272026,0,1698648007.7115,58
0.0617,0.6598,-0.3487,0.6476,-0.7265,0.4936,0.2545,-1.694,8.5972,-0.034,0.4476,2.5037,0.3122,9.0383,0.3049,4.0321,-0.1801,3.2666,0.9158,9.3334,0.5312,1.7945,-0.285374,0,1698648007.7213,59
0.0674,0.6262,-0.3389,0.7252,-0.5828,0.3188,0.2783,-1.8017,8.796,-0.0531,0.2033,3.2644,0.0511,9.2408,0.3013,3.9866,0.1916,2.7297,1.0108,9.4642,0.5119,1.837,-0.131525,0,1698648007.7314,60
0.0735,0.6119,-0.3292,0.7686,-0.3246,0.1405,0.2841,-1.9973,8.8023,0.0528,-0.11,3.5067,-0.1823,9.4361,0.2494,4.1135,0.5767,2.293,1.077,9.6384,0.5189,1.8636,0.065615,0,1698648007.742,60
0.0794,0.594,-0.3202,0.7563,-0.0473,-0.1173,0.2663,-2.1073,8.893,0.2257,-0.2477,3.4836,-0.3697,9.634,0.1406,4.0723,0.7718,2.2428,1.136,9.8382,0.5291,1.8714,0.149557,0,1698648007.7521,61
0.0843,0.5805,-0.3127,0.722,0.0607,-0.3167,0.2125,-2.0142,9.1965,0.2605,-0.4518,3.0268,-0.3379,9.7698,0.0791,4.1723,0.6234,2.5319,1.1307,10.0337,0.5613,1.9478,0.022589,0,1698648007.7621,62
0.0889,0.5766,-0.3068,0.6758,0.0542,-0.3958,0.1665,-1.9111,9.4085,0.2702,-0.5992,2.6412,-0.2851,9.9288,0.046,4.3726,0.2269,2.9387,1.0491,10.2473,0.5837,2.1001,-0.197013,0,1698648007.7718,63
0.0934,0.5421,-0.3034,0.5798,0.0662,-0.4802,0.1102,-1.8116,9.7276,0.2347,-0.5323,2.4398,-0.2714,10.0987,-0.0225,4.5002,-0.2268,3.2454,0.9397,10.4405,0.5524,2.2451,-0.375923,0,1698648007.7812,63
0.0969,0.4865,-0.3025,0.4349,0.1923,-0.5244,0.0802,-1.7174,9.864,0.1283,-0.4606,2.2424,-0.2462,10.1874,-0.0647,4.6525,-0.6158,3.4436,0.8129,10.5943,0.5065,2.3816,-0.515213,0,1698648007.7913,64
0.0995,0.4353,-0.303,0.2981,0.4062,-0.6414,0.0569,-1.7424,9.9689,0.0285,-0.4135,2.044,-0.2071,10.2609,-0.0809,4.7707,-0.9086,3.5361,0.671,10.7143,0.4724,2.521,-0.623451,0,1698648007.8014,65
0.1018,0.404,-0.3038,0.1984,0.585,-0.7946,-0.0098,-1.7826,9.9932,-0.0297,-0.3675,1.7926,-0.1426,10.3495,-0.0732,4.8677,-1.0994,3.3915,0.5378,10.827,0.4371,2.6816,-0.707524,0,1698648007.8113,66
0.1051,0.4003,-0.3046,0.1498,0.8407,-0.9399,-0.1153,-1.886,9.7817,-0.0325,-0.3668,1.3674,-0.0396,10.4921,-0.0316,4.9983,-1.1419,2.9051,0.453,11.007,0.3715,2.8593,-0.772825,0,1698648007.8209,67
0.109,0.406,-0.3052,0.1175,1.4066,-1.1227,-0.2654,-2.0305,9.8504,-0.0739,-0.5,0.628,0.1383,10.7461,-0.0237,5.1332,-1.0463,2.1251,0.4332,11.245,0.2743,3.0447,-0.823546,0,1698648007.831,67
0.1126,0.3854,-0.3052,0.0876,1.8163,-1.2885,-0.4724,-2.0515,10.5744,-0.2656,-0.7006,-0.369,0.4086,10.9511,-0.0632,5.3539,-0.8493,1.2764,0.4562,11.422,0.1589,3.1913,-0.862943,0,1698648007.8412,68
0.1147,0.3195,-0.3048,0.0907,1.8891,-1.4173,-0.691,-2.1283,11.2549,-0.4017,-0.8564,-1.1928,0.6526,10.9321,-0.168,5.5307,-0.6886,0.6691,0.4664,11.4668,0.0418,3.2886,-0.893544,0,1698648007.8514,69
0.1152,0.2512,-0.3035,0.1283,1.8681,-1.6,-0.9461,-2.2521,12.0812,-0.5114,-0.9297,-1.7142,0.8149,10.8142,-0.3129,5.5216,-0.7427,0.3474,0.4351,11.4339,-0.089,3.4072,-0.917312,0,1698648007.8612,70
0.1149,0.2053,-0.3,0.2255,1.9583,-1.8041,-1.1826,-2.5572,12.6995,-0.3652,-0.8179,-1.9786,1.125,10.8124,-0.2684,5.6123,-0.9739,0.0941,0.3843,11.4552,-0.2232,3.5814,-0.935774,0,1698648007.8711,71
0.1143,0.1287,-0.2931,0.4006,1.8733,-1.7897,-1.356,-2.5866,12.4864,-0.1297,-0.6603,-2.2615,1.446,10.9403,-0.1039,5.9819,-1.2004,-0.1861,0.3339,11.5933,-0.314,3.7942,-0.950114,0,1698648007.8814,71
0.1122,0.0215,-0.2833,0.5803,1.1605,-1.4248,-1.4371,-2.1267,12.9683,-0.5907,-0.5933,-2.6176,1.4968,10.9686,-0.0921,6.1714,-1.2894,-0.466,0.2589,11.7672,-0.3357,3.9593,-0.961252,0,1698648007.8914,72
0.1073,-0.1124,-0.2722,0.7043,0.6554,-1.1627,-1.3867,-2.0434,13.9455,-0.9568,-0.6904,-2.6547,1.4058,10.858,-0.0952,6.1133,-1.3253,-0.4933,0.1614,11.8645,-0.2967,3.9886,-0.969903,0,1698648007.9012,73
0.0995,-0.3116,-0.2619,0.7678,0.713,-1.1364,-1.2708,-2.1305,14.2975,-0.8108,-0.7642,-2.6657,1.3727,10.6845,-0.1316,6.0171,-1.5671,-0.2461,0.0235,11.7573,-0.2557,3.887,-0.976623,0,1698648007.9113,74
0.0889,-0.5112,-0.2534,0.7792,0.8915,-1.0852,-1.1331,-2.0715,13.8487,-0.4775,-0.9467,-3.0278,1.4356,10.3861,-0.1305,5.7676,-1.9176,0.0345,-0.2643,11.4797,-0.2062,3.7344,-0.981842,0,1698648007.9216,75
0.0755,-0.7068,-0.2472,0.7311,1.0191,-1.0932,-1.0134,-1.9899,13.1126,-0.0437,-1.4106,-3.2597,1.4247,10.0223,-0.0222,5.6049,-2.3672,0.2252,-0.6472,11.1318,-0.1691,3.6209,-0.985896,0,1698648007.9312,75
0.061,-0.9166,-0.243,0.6702,1.1455,-1.1225,-0.8684,-1.7653,12.2567,0.3541,-1.88,-3.1381,1.2791,9.6962,0.0788,5.4824,-2.9294,0.4261,-1.0639,10.7303,-0.1178,3.5523,-0.989045,0,1698648007.9423,76
0.0453,-1.0613,-0.2391,0.6282,1.144,-1.1418,-0.7174,-1.5182,11.2378,0.7219,-2.3715,-3.0301,1.0876,9.3832,0.189,5.2641,-3.5646,0.941,-1.5426,10.2956,-0.0341,3.5463,-0.991491,0,1698648007.952,77
0.0289,-1.1448,-0.234,0.6016,0.8377,-1.1048,-0.5848,-1.3404,10.6559,0.8007,-2.8505,-2.8507,0.8298,8.9969,0.2862,5.0876,-4.2208,1.6605,-2.0415,9.8309,0.0255,3.6117,-0.993391,0,1698648007.962,78
0.0123,-1.2094,-0.2272,0.6495,0.5478,-1.1152,-0.4247,-1.3838,10.6388,0.6542,-3.2686,-2.3944,0.3654,8.5598,0.3402,4.919,-4.7288,2.4289,-2.4698,9.3658,0.0101,3.6838,-0.994867,0,1698648007.9718,79
-0.0055,-1.3332,-0.2195,0.7159,0.4547,-1.2367,-0.2399,-1.5407,10.5084,0.6247,-3.5285,-1.5729,-0.2663,8.1665,0.3806,4.8144,-5.0986,2.7523,-2.7736,8.924,-0.0848,3.7423,-0.996013,0,1698648007.9814,79
-0.0243,-1.5118,-0.2104,0.7436,0.3893,-1.4163,-0.0648,-1.5647,10.0872,0.6661,-3.7892,-0.9238,-0.8039,7.8303,0.4633,4.8578,-5.2845,2.4137,-2.9848,8.5421,-0.2234,3.8104,-0.996903,0,1698648007.9914,80
-0.0447,-1.6373,-0.2002,0.8013,0.2541,-1.6572,0.0994,-1.5492,9.905,0.6828,-3.9457,-0.6778,-1.2027,7.6383,0.446,4.9481,-5.3624,1.7681,-3.0952,8.2474,-0.4011,3.8916,-0.997594,0,1698648008.0013,81
-0.0659,-1.7088,-0.1902,0.8614,0.1669,-1.9414,0.2354,-1.5331,9.8513,0.7308,-3.8465,-0.5106,-1.5559,7.598,0.3738,5.076,-5.4749,0.9045,-3.123,8.0615,-0.5554,3.971,-0.998132,0,1698648008.0115,82
-0.0875,-1.749,-0.181,0.8794,0.1384,-2.2508,0.3385,-1.4736,9.815,0.7854,-3.6186,-0.3424,-1.8796,7.598,0.3056,5.2521,-5.6568,-0.1165,-3.0909,7.9839,-0.6841,4.0068,-0.998549,0,1698648008.0214,83
-0.1088,-1.8211,-0.1726,0.8477,0.089,-2.538,0.4347,-1.2908,10.014,0.7381,-3.1843,-0.1606,-2.1891,7.6482,0.2313,5.461,-5.8714,-1.3246,-2.9961,7.9881,-0.8308,4.0124,-0.998873,0,1698648008.0317,83
-0.1295,-1.9141,-0.165,0.809,0.0106,-2.7082,0.5223,-1.0002,10.2562,0.7074,-2.6381,-0.0092,-2.4575,7.7682,0.1854,5.6903,-6.0271,-2.6959,-2.8508,8.076,-0.9846,4.0384,-0.999124,0,1698648008.0414,84
-0.1492,-1.9106,-0.1579,0.7945,-0.1824,-2.8686,0.6175,-0.7747,10.1145,0.9693,-2.1014,0.1127,-2.6541,7.9844,0.1478,5.9182,-6.0499,-4.1377,-2.6852,8.2633,-1.1214,4.0823,-0.99932,0,1698648008.0515,85
-0.1675,-1.8351,-0.1509,0.7551,-0.1312,-3.092,0.7214,-0.6063,9.8612,1.3297,-1.5448,0.1699,-2.7907,8.2691,0.1004,6.1192,-5.9893,-5.4246,-2.5446,8.5223,-1.236,4.1101,-0.999472,0,1698648008.0617,86
-0.1854,-1.768,-0.1439,0.7313,0.1813,-3.1999,0.8276,-0.4266,9.611,1.5401,-1.0835,0.1759,-2.8583,8.5231,0.0268,6.2487,-6.0837,-6.3202,-2.4439,8.7941,-1.3102,4.1073,-0.99959,0,1698648008.0718,87
-0.2026,-1.7497,-0.1364,0.7331,0.3652,-3.2113,0.9331,-0.3172,9.3926,1.5891,-1.0328,0.1176,-2.87,8.6602,-0.1013,6.2318,-5.9703,-6.6868,-2.3785,8.9907,-1.3134,4.0386,-0.999681,0,1698648008.0812,87
-0.218,-1.7339,-0.1285,0.7497,0.4978,-3.1707,1.0355,-0.2105,9.4116,1.5157,-1.4689,-0.128,-2.799,8.6911,-0.3058,5.9938,-5.504,-6.4212,-2.3354,9.0951,-1.26,3.8436,-0.999752,0,1698648008.093,88
-0.2337,-1.666,-0.1195,0.7804,0.6912,-3.1213,1.1431,-0.152,9.3593,1.4512,-2.0412,-0.5233,-2.6202,8.6585,-0.5584,5.6388,-5.14,-5.9864,-2.3036,9.0973,-1.1483,3.5347,-0.999808,0,1698648008.1033,89
-0.2492,-1.5704,-0.1102,0.7801,0.9641,-3.0778,1.2753,-0.178,9.1185,1.4415,-2.6664,-1.08,-2.3612,8.6232,-0.7333,5.28,-5.0456,-5.555,-2.2524,9.0766,-1.0099,3.2055,-0.999851,0,1698648008.1138,90
-0.263,-1.4973,-0.1016,0.8016,1.0959,-2.9588,1.4283,-0.1585,8.9529,1.4045,-3.307,-1.6726,-2.0169,8.5907,-0.8712,5.0088,-7.6499,-4.5671,-2.1684,9.4847,-1.0761,3.2528,-0.999884,0,1698648008.1235,90
-0.2759,-1.4555,-0.0929,0.8601,1.1225,-2.8442,1.5531,0.0198,9.0461,1.2537,-3.6837,-1.9906,-1.8023,8.477,-1.0249,4.8326,-8.9065,-3.7069,-2.2659,9.6806,-1.0391,3.5211,-0.99991,0,1698648008.1338,91
-0.2882,-1.4345,-0.0844,0.8772,1.1917,-2.7339,1.6534,0.225,9.1524,1.1138,-3.8254,-1.8414,-1.7719,8.3748,-1.0673,4.6717,-7.0884,-1.7529,-2.23,9.462,-0.9336,3.626,-0.99993,0,1698648008.144,92
-0.3001,-1.3933,-0.0757,0.875,1.2165,-2.5792,1.7356,0.337,9.0906,1.0329,-3.857,-1.5857,-1.7509,8.3283,-1.0208,4.5318,-6.144,2.128,-1.9422,9.3564,-0.961,3.6362,-0.999946,0,1698648008.1554,93
-0.3115,-1.3081,-0.0673,0.8771,1.1727,-2.4224,1.7832,0.5004,9.1557,0.925,-3.8535,-1.2192,-1.7695,8.3013,-0.9419,4.5207,-5.3815,5.0273,-1.7459,9.137,-0.9267,3.4367,-0.999958,0,1698648008.1655,94
-0.3217,-1.2119,-0.06,0.8454,1.0407,-2.2486,1.8075,0.587,9.2266,0.8914,-3.8507,-0.6652,-1.8411,8.2643,-0.8649,4.5802,-4.5327,4.9231,-1.6992,8.8612,-0.8907,3.0513,-0.999967,0,1698648008.1756,94
-0.3299,-1.1104,-0.0537,0.7907,0.8572,-2.0727,1.7913,0.6136,9.3375,0.8113,-3.7745,-0.2503,-1.8941,8.2235,-0.862,4.562,-3.9339,3.1522,-1.8213,8.654,-0.879,2.7744,-0.999975,0,1698648008.1853,95
-0.3368,-1.0059,-0.048,0.7473,0.7606,-1.9344,1.7447,0.6282,9.4212,0.7148,-3.5184,0.1802,-1.8603,8.2303,-0.9314,4.5222,-4.1199,2.2787,-1.9503,8.5596,-0.9464,2.7788,-0.99998,0,1698648008.1953,96
-0.3423,-0.9075,-0.0422,0.7127,0.7803,-1.821,1.6983,0.5761,9.1089,0.6776,-3.1166,0.5393,-1.7156,8.2283,-1.0329,4.5084,-4.3828,2.4174,-1.9712,8.5167,-1.0746,2.9059,-0.999985,0,1698648008.2054,97
-0.347,-0.804,-0.0359,0.7039,0.7026,-1.7099,1.646,0.5215,8.8689,0.5947,-2.5873,0.9452,-1.6713,8.1801,-1.1791,4.4648,-3.8772,2.538,-1.8367,8.4765,-1.221,2.9849,-0.999988,0,1698648008.2157,98
-0.3509,-0.6893,-0.0297,0.6931,0.5239,-1.6176,1.5415,0.5088,8.9338,0.4793,-2.0594,1.3202,-1.7725,8.153,-1.3495,4.3523,-2.7601,2.2558,-1.5822,8.4554,-1.3419,2.9998,-0.999991,0,1698648008.2253,98
-0.3531,-0.5735,-0.0232,0.7034,0.3117,-1.4974,1.3879,0.5299,8.9505,0.284,-1.7226,1.6736,-1.7462,8.2041,-1.4996,4.2842,-1.6452,1.6616,-1.3512,8.4593,-1.396,2.9682,-0.999993,0,1698648008.2355,99
-0.3538,-0.449,-0.0163,0.7298,0.1137,-1.4066,1.2183,0.4851,8.9683,0.0784,-1.5565,2.2847,-1.7335,8.2949,-1.6883,4.3586,-1.0248,1.1073,-1.2622,8.4867,-1.3846,2.9197,-0.999146,0,1698648008.2458,0
-0.3538,-0.3386,-0.009,0.7402,-0.0154,-1.3786,1.0525,0.4019,9.1206,-0.069,-1.4675,2.9827,-1.831,8.3486,-1.756,4.4738,-0.87,0.6366,-1.3081,8.5251,-1.3578,2.8705,-0.995482,0,1698648008.2565,1
-0.3537,-0.272,-0.0016,0.7461,-0.0694,-1.4321,0.7402,0.2385,9.1659,-0.1687,-1.2845,4.2233,-2.4011,8.2288,-1.9047,4.0885,-0.6916,-0.0206,-1.3813,8.553,-1.3973,2.7877,-0.959201,0,1698648008.2672,2
-0.3536,-0.2382,0.0057,0.7248,-0.1201,-1.4478,0.584,0.2665,9.2503,-0.2225,-1.2801,4.6103,-2.5753,8.0342,-1.8172,3.9772,-0.4195,-0.109,-1.2873,8.5907,-1.4016,2.7453,-0.871307,0,1698648008.2776,2
-0.3535,-0.2019,0.0126,0.7194,-0.1987,-1.4192,0.4644,0.3305,9.2621,-0.2375,-1.0347,5.0063,-2.6314,8.0245,-1.6023,3.786,-0.0463,-0.0755,-1.1128,8.6313,-1.3555,2.7067,-0.68047,0,1698648008.2879,3
-0.3533,-0.1513,0.0194,0.7003,-0.1524,-1.4046,0.3945,0.4304,9.2368,-0.2198,-0.8798,4.6952,-2.3512,8.0265,-1.6574,3.8184,0.2249,0.0784,-0.9287,8.6734,-1.336,2.6455,-0.383166,0,1698648008.2996,4
-0.3519,-0.0758,0.026,0.6599,-0.4257,-1.3166,0.33,0.6281,8.8512,0.0631,-0.8491,4.1545,-1.8549,8.0503,-1.7705,4.1459,0.3494,0.2508,-0.7602,8.7228,-1.3431,2.5811,-0.134584,0,1698648008.3098,5
-0.3486,0.0181,0.0315,0.62,-0.8528,-1.1733,0.2261,0.8855,8.5467,0.3026,-0.578,3.6996,-1.3654,8.0944,-1.8672,4.4559,0.4402,0.3412,-0.6105,8.7822,-1.3777,2.5284,-0.12781,0,1698648008.3204,6
-0.3431,0.1443,0.0366,0.5589,-0.8888,-1.0772,0.0739,1.0655,8.7471,0.2666,-0.0846,3.6274,-1.0874,8.1359,-1.888,4.653,0.5141,0.4498,-0.4866,8.8634,-1.4184,2.4848,-0.281417,0,1698648008.3307,6
-0.3349,0.2996,0.0412,0.5353,-0.8154,-0.9311,-0.0758,1.2365,8.728,0.2819,0.6004,3.637,-0.9678,8.2432,-1.951,4.7164,0.4156,0.7012,-0.381,8.9531,-1.4445,2.4705,-0.418926,0,1698648008.3411,7
-0.3246,0.4592,0.0456,0.5344,-0.7089,-0.7128,-0.1811,1.4124,8.695,0.3119,1.0361,2.8843,-0.5733,8.2887,-1.9226,4.7806,0.1916,1.106,-0.3058,9.0392,-1.4549,2.4745,-0.540528,0,1698648008.3531,8
-0.3121,0.5939,0.0515,0.5349,-0.6432,-0.44,-0.2534,1.4889,8.7295,0.3689,1.3498,2.084,-0.1075,8.3672,-1.8667,4.855,0.0662,1.5884,-0.2371,9.121,-1.4672,2.4569,-0.642142,0,1698648008.3637,9
-0.2992,0.6652,0.0585,0.549,-0.6101,-0.1592,-0.3097,1.5036,8.822,0.4028,1.8313,1.7496,0.2646,8.49,-1.8694,4.9238,0.3591,1.9332,-0.1054,9.1971,-1.4799,2.3739,-0.721633,0,1698648008.374,10
-0.2878,0.6962,0.0654,0.5596,-0.5231,0.093,-0.3448,1.4424,9.0703,0.3725,2.2811,1.5257,0.6089,8.5637,-1.8013,5.0253,1.2292,2.0605,0.0984,9.281,-1.4305,2.2272,-0.721587,0,1698648008.3853,10
-0.2774,0.7126,0.0724,0.5724,-0.5125,0.3673,-0.3431,1.3227,9.3155,0.285,2.5622,1.3066,0.8551,8.6589,-1.7051,5.0868,2.3132,2.1167,0.3026,9.3885,-1.308,2.083,-0.498564,0,1698648008.3961,11
-0.2689,0.6901,0.0787,0.5536,-0.5052,0.5992,-0.3333,1.1666,9.5899,0.2406,2.6673,1.1108,0.9807,8.7617,-1.6065,5.0937,3.1057,2.2388,0.4408,9.5214,-1.1526,2.0231,-0.163984,0,1698648008.4061,12
-0.2635,0.6155,0.0835,0.5158,-0.4947,0.8793,-0.2553,0.739,10.0105,0.2298,2.5838,1.2259,0.8314,8.9977,-1.4641,5.1471,3.1998,2.5102,0.4663,9.8426,-0.9214,2.3069,0.095899,0,1698648008.4172,13
-0.2605,0.5285,0.087,0.4657,-0.5749,1.0326,-0.2156,0.6497,9.9953,0.1589,2.4148,1.3388,0.6385,9.0986,-1.4047,5.1929,2.8306,2.5912,0.4324,9.9626,-0.8603,2.5477,0.297758,0,1698648008.4283,14
-0.2591,0.4172,0.0901,0.4125,-0.4752,1.1713,-0.1721,0.6856,9.7916,-0.037,2.1761,1.3599,0.4775,9.1757,-1.4037,5.2322,2.4543,2.6542,0.4198,10.0536,-0.8343,2.7668,0.454548,0,1698648008.4393,15
-0.2592,0.3068,0.0931,0.3761,-0.2598,1.3617,-0.1041,0.8126,9.5612,-0.2385,1.9311,1.2392,0.4232,9.234,-1.4542,5.2689,2.0674,2.5702,0.4304,10.158,-0.8759,2.9779,0.576331,0,1698648008.4505,15
-0.2599,0.2251,0.0965,0.3337,0.0081,1.5982,-0.0241,1.0246,9.5159,-0.3112,1.693,0.9307,0.4944,9.3733,-1.5216,5.3829,1.7252,2.1155,0.4796,10.3417,-0.9918,3.2479,0.670924,0,1698648008.4612,16
-0.2603,0.1673,0.1001,0.315,0.2869,1.8193,0.0918,1.0987,9.9177,-0.2995,1.7331,0.5555,0.6972,9.667,-1.5878,5.5936,1.6792,1.2842,0.6064,10.6053,-1.1278,3.5528,0.744397,0,1698648008.4737,17
-0.2601,0.1323,0.1037,0.3032,0.3612,2.0593,0.2925,0.9557,10.7523,-0.2821,2.2756,0.3289,0.9287,10.0699,-1.601,5.9035,2.0125,0.3463,0.8046,10.9126,-1.2709,3.7808,0.801465,0,1698648008.4839,18
-0.2595,0.1263,0.1063,0.2691,0.1717,2.3497,0.5644,0.5828,11.7231,-0.2758,3.2039,0.1623,1.1299,10.4658,-1.4511,6.3553,2.6378,-0.3857,1.0651,11.1839,-1.3518,3.9441,0.845792,0,1698648008.4949,19
-0.2566,0.1769,0.107,0.2062,-0.6001,2.8701,0.8573,0.2303,12.1693,-0.2375,4.1176,-0.562,1.3152,10.6864,-1.0883,6.7869,3.2778,-0.8604,1.3236,11.413,-1.2698,4.1058,0.880222,0,1698648008.5043,19
-0.251,0.2831,0.1068,0.1392,-1.6154,3.3058,1.1207,-0.1566,12.9067,-0.077,4.7174,-1.2439,1.3628,10.8526,-0.6982,7.0731,3.7493,-1.2829,1.5193,11.7025,-1.034,4.2505,0.906965,0,1698648008.5149,20
-0.2441,0.3995,0.1057,0.0537,-2.1527,3.3928,1.3848,-0.8585,13.8231,0.2202,4.8722,-1.5383,1.3051,11.1298,-0.3854,7.2039,4.0388,-1.7627,1.6339,12.0706,-0.7102,4.3604,0.927737,0,1698648008.5246,21
-0.2368,0.4764,0.1021,-0.1007,-2.2913,3.3778,1.5926,-1.4614,14.3719,0.2098,4.4572,-1.8138,1.2331,11.4729,-0.1159,7.3135,3.8376,-2.1857,1.6214,12.4412,-0.4085,4.4413,0.943871,0,1698648008.5347,22
-0.2304,0.5093,0.0956,-0.2893,-2.0794,3.269,1.6713,-1.6242,14.7799,0.0461,3.645,-2.0381,1.1678,11.7501,0.0212,7.3562,2.9024,-2.2969,1.4984,12.6821,-0.1327,4.4918,0.956403,0,1698648008.5443,23
-0.2258,0.479,0.0873,-0.4566,-1.6839,3.1461,1.7078,-1.5222,14.4426,0.1748,2.6578,-2.1808,1.1111,11.7956,-0.0398,7.207,1.3699,-1.9692,1.2801,12.693,0.136,4.4545,0.966039,0,1698648008.5548,23
-0.2225,0.4346,0.0778,-0.5984,-1.2983,3.0771,1.6781,-1.316,13.6522,0.495,1.58,-2.1987,1.0304,11.6458,-0.1255,6.8907,-0.3113,-1.4504,1.0083,12.4201,0.3255,4.3278,0.973421,0,1698648008.5646,24
-0.2192,0.4322,0.067,-0.7276,-0.9477,2.9638,1.5494,-0.9957,12.8349,0.7674,0.4796,-2.2134,1.0214,11.3188,-0.1083,6.5747,-1.624,-1.0714,0.735,11.9001,0.4251,4.1978,0.977982,0,1698648008.5749,25
-0.2148,0.4629,0.0541,-0.8735,-0.6804,2.8281,1.3037,-0.6769,12.3016,0.7914,-0.4349,-2.1005,1.075,10.8384,-0.0886,6.2929,-2.3325,-0.9576,0.4972,11.2336,0.4196,4.094,0.890638,0,1698648008.5856,26
-0.2074,0.5314,0.0394,-1.0529,-0.4464,2.7738,0.9407,-0.4263,11.8222,0.7908,-0.8434,-1.8304,1.2409,10.2675,-0.1874,5.9907,-2.5284,-1.0439,0.3371,10.4857,0.293,3.9999,0.617823,0,1698648008.5953,27
-0.1973,0.6737,0.024,-1.1935,-0.2365,2.7973,0.5105,-0.2114,10.9516,0.9465,-1.1165,-1.5499,1.4363,9.5659,-0.3093,5.6827,-2.3302,-1.2021,0.2657,9.706,0.0754,3.8833,0.47145,0,1698648008.6057,27
-0.1852,0.8191,0.0076,-1.32,-0.1349,2.8598,0.0519,-0.0199,10.01,1.2154,-1.3968,-1.1002,1.4296,8.794,-0.4134,5.2689,-1.8534,-1.4316,0.2647,8.9312,-0.1813,3.7638,0.5639,0,1698648008.6158,28
-0.1725,0.9058,-0.0095,-1.4628,-0.0559,2.9365,-0.4014,0.135,9.5255,1.4417,-1.5582,-0.5958,1.4227,8.0788,-0.4293,5.0205,-1.1268,-1.7853,0.3508,8.2053,-0.4547,3.6488,0.661162,0,1698648008.6254,29
-0.1612,0.9591,-0.0269,-1.579,0.1213,2.9586,-0.8225,0.1872,9.3794,1.4517,-1.5668,-0.418,1.609,7.4866,-0.2491,5.0422,-0.1661,-2.2868,0.5294,7.5891,-0.6476,3.5334,0.736811,0,1698648008.6359,30
-0.1518,0.9162,-0.0451,-1.6299,0.4602,3.0137,-1.3028,-0.0027,8.2516,1.5513,-0.445,-0.6152,2.2201,6.7137,0.2602,5.1932,1.4232,-3.4236,0.9525,6.8785,-0.6535,3.4328,0.795573,0,1698648008.6473,31
-0.1445,0.804,-0.0646,-1.6363,0.3109,3.1029,-1.406,-0.1336,8.0211,1.5267,0.715,-0.744,2.5105,6.6136,0.4521,5.2592,1.9048,-3.9572,1.1808,6.806,-0.5868,3.4687,0.841216,0,1698648008.6582,31
-0.1392,0.7009,-0.0847,-1.6393,-0.1025,3.2736,-1.423,-0.3499,8.3119,1.3943,2.2117,-0.4615,2.4531,6.68,0.6434,5.3158,2.2517,-4.249,1.4604,6.9048,-0.508,3.5255,0.876668,0,1698648008.6692,32
-0.1348,0.6302,-0.1057,-1.6916,-0.629,3.4931,-1.3596,-0.6131,8.8799,1.1733,3.6596,-0.0903,2.0788,6.7831,0.9339,5.3145,2.6975,-4.2268,1.8122,7.1157,-0.3861,3.5984,0.904204,0,1698648008.6801,33
-0.1306,0.6072,-0.1277,-1.8236,-0.8335,3.5486,-1.2625,-1.011,9.0484,1.1636,4.9105,0.215,1.7769,6.9434,1.2359,5.2425,3.5397,-4.161,2.1553,7.4003,-0.1974,3.6915,0.925592,0,1698648008.691,34
-0.1255,0.6215,-0.15,-1.9546,-0.832,3.5124,-1.1599,-1.3915,8.6857,1.3595,5.8206,0.9813,1.401,7.2459,1.4553,5.2306,4.4938,-3.7025,2.4585,7.7911,0.0005,3.7827,0.942205,0,1698648008.7023,35
-0.1189,0.6388,-0.1711,-1.9739,-0.8394,3.4996,-1.07,-1.5691,8.3325,1.5079,6.2464,1.9473,1.0272,7.6289,1.6212,5.2925,5.2725,-2.8488,2.7383,8.2769,0.2251,3.8471,0.955109,0,1698648008.7128,35
-0.1116,0.6506,-0.1901,-1.9276,-0.8034,3.4377,-0.9669,-1.6852,8.2352,1.5638,6.2993,2.3729,1.059,8.0111,1.719,5.2465,5.8133,-2.1694,2.9428,8.7836,0.4973,3.8402,0.965132,0,1698648008.7235,36
-0.1045,0.6607,-0.206,-1.8534,-0.5999,3.3488,-0.8553,-1.7555,8.0097,1.6257,6.1648,2.0814,1.5387,8.4077,1.6381,5.0894,4.8503,-1.9136,3.3054,9.0529,0.8488,4.1003,0.972917,0,1698648008.7337,37
-0.0973,0.6832,-0.2192,-1.7041,-0.3566,3.2967,-0.7609,-1.657,7.7516,1.6861,5.9734,1.2294,2.2531,8.7593,1.3446,4.9166,4.352,-2.3148,3.3015,9.169,1.4375,4.2986,0.978964,0,1698648008.7438,38
-0.0901,0.7127,-0.231,-1.5401,-0.0952,3.2801,-0.6877,-1.5389,7.9711,1.6228,5.812,0.0675,2.8744,8.9958,0.9753,4.7827,4.4354,-2.6205,3.0241,8.6996,1.6716,4.1938,0.983661,0,1698648008.7534,39
-0.0831,0.731,-0.2422,-1.4151,0.2689,3.2076,-0.6444,-1.5473,8.1041,1.6729,5.5289,-1.1094,3.3127,9.1025,0.6552,4.6896,3.5798,-1.3905,2.5487,8.5119,1.5163,3.8802,0.987309,0,1698648008.7641,40
-0.0758,0.738,-0.2537,-1.3212,0.4852,3.0873,-0.6533,-1.506,8.2213,1.6925,5.0782,-2.0645,3.7818,9.1114,0.4221,4.597,3.4189,-0.1965,1.7798,9.0011,1.3501,3.403,0.990142,0,1698648008.7746,40
-0.0681,0.7303,-0.2652,-1.2631,0.5808,3.0152,-0.7268,-1.3908,8.6224,1.4929,4.5209,-2.7279,3.9621,9.0811,0.2729,4.5595,4.0319,-0.6146,1.2754,9.1045,1.1643,3.0776,0.992343,0,1698648008.7842,41
-0.0608,0.7099,-0.2758,-1.243,0.6755,2.9558,-0.8316,-1.2612,8.8915,1.3341,3.8734,-3.1153,3.602,9.0498,0.1744,4.5363,4.6316,-0.6659,0.853,9.1078,1.1033,2.8472,0.994053,0,1698648008.795,42
-0.0539,0.6846,-0.2868,-1.2317,0.7772,2.8773,-0.959,-1.2381,9.0732,1.1602,3.1182,-3.3123,2.92,9.0223,0.1532,4.5592,4.3986,0.6757,0.5598,9.0981,0.9849,2.7453,0.995381,0,1698648008.8055,43
-0.0471,0.659,-0.2974,-1.1878,0.771,2.887,-1.1099,-1.1554,9.2066,0.9455,2.3305,-3.3955,2.0562,8.9799,0.2014,4.636,3.7395,2.0023,0.4557,9.0545,0.7855,2.6599,0.996412,0,1698648008.8158,44
-0.0403,0.6274,-0.3079,-1.1105,0.6477,2.938,-1.2757,-1.0247,9.3404,0.8231,1.7101,-3.4822,1.4509,8.9073,0.227,4.7109,3.485,1.9386,0.5026,8.9739,0.5945,2.5453,0.997213,0,1698648008.8264,44
-0.0336,0.6248,-0.3184,-1.0976,0.4483,2.9063,-1.6077,-1.1728,9.5966,0.7113,3.2563,-1.9944,1.9661,8.7315,0.3294,4.6672,3.6658,0.0939,0.696,8.8446,0.3503,2.4044,0.997835,0,1698648008.8373,45
-0.0268,0.6315,-0.3283,-1.0783,0.2982,2.9079,-1.7212,-1.3223,9.4287,0.6773,3.8711,-1.7847,2.2212,8.7163,0.2116,4.4575,3.7072,0.112,0.8887,8.845,0.2158,2.416,0.998319,0,1698648008.8478,46
-0.0198,0.6085,-0.3378,-1.0479,0.0214,2.9244,-1.7795,-1.441,9.3902,0.5824,4.0189,-1.7427,2.3392,8.6783,0.1545,4.3801,3.7693,0.5589,1.1065,8.856,0.1202,2.425,0.998694,0,1698648008.8579,47
-0.0135,0.5902,-0.3465,-1.0433,-0.2737,2.8699,-1.8077,-1.6007,9.5814,0.4227,4.039,-1.7349,2.2936,8.7097,0.2112,4.2788,3.9938,0.8021,1.2783,8.8804,0.0997,2.3826,0.998986,0,1698648008.8683,48
-0.0071,0.594,-0.3546,-0.9848,-0.5302,2.8242,-1.7828,-1.7939,9.6067,0.2671,3.897,-1.7663,2.231,8.6887,0.263,4.2092,4.4742,0.4362,1.3563,8.9011,0.1481,2.2986,0.999212,0,1698648008.8793,48
-0.0003,0.6103,-0.3618,-0.8866,-0.7788,2.7461,-1.6918,-1.9645,9.5381,0.1457,3.4399,-1.6092,2.0554,8.6817,0.3033,4.0977,5.0143,-0.2016,1.3888,8.9483,0.2411,2.1697,0.999388,0,1698648008.8901,49
0.0063,0.6179,-0.3673,-0.7673,-0.9839,2.5917,-1.5436,-2.1019,9.3427,0.1388,2.7704,-1.1377,1.6156,8.7209,0.3396,3.9314,5.3162,-0.461,1.3756,9.0391,0.3668,2.0589,0.999525,0,1698648008.9005,50
0.0125,0.6178,-0.3704,-0.634,-1.1338,2.4155,-1.3697,-2.1551,9.1459,0.1193,1.9291,-0.498,0.9663,8.7529,0.3996,3.8106,5.2883,-0.244,1.3169,9.1348,0.5181,1.9723,0.99963,0,1698648008.9111,51
0.0189,0.6181,-0.3716,-0.5019,-1.1761,2.2079,-1.1946,-2.1791,9.0052,0.083,1.0882,0.3295,0.151,8.7337,0.5144,3.7317,5.1021,0.0097,1.2261,9.2121,0.6771,1.8714,0.999712,0,1698648008.9242,52
0.027,0.6385,-0.3718,-0.4055,-1.1621,2.0015,-1.0398,-2.1688,8.8945,0.0385,0.5577,1.4973,-0.7729,8.6956,0.6402,3.5974,4.8783,-0.0344,1.066,9.2625,0.8655,1.7583,0.999775,0,1698648008.9359,52
0.0366,0.6678,-0.3717,-0.3296,-1.1563,1.8233,-0.9094,-2.0949,8.8211,-0.0826,0.1993,2.7468,-1.5339,8.6705,0.7622,3.5798,4.4845,-0.1087,0.8582,9.2923,1.0637,1.6659,0.999822,0,1698648008.9465,53
0.0456,0.6758,-0.3715,-0.2671,-0.7297,1.3363,-0.6185,-2.1222,8.5717,-0.2185,0.2058,3.9801,-1.7269,8.6736,0.8476,3.7252,2.8241,0.3839,0.4698,9.2996,1.3156,1.5343,0.999859,0,1698648008.9576,54
0.0542,0.6941,-0.3708,-0.1914,-0.6117,1.1464,-0.4978,-2.191,8.5191,-0.3181,0.4007,4.0652,-1.5429,8.6553,0.822,3.6349,1.9533,0.4123,0.3159,9.3174,1.3361,1.4812,0.99989,0,1698648008.9679,55
0.0621,0.6965,-0.3687,-0.0789,-0.8498,1.0671,-0.3819,-2.2919,8.8585,-0.477,0.3842,3.9003,-1.5781,8.6461,0.8136,3.5853,1.3306,0.032,0.2083,9.3055,1.3127,1.4664,0.999915,0,1698648008.9796,56
0.0692,0.6708,-0.3643,0.0666,-1.1609,0.8981,-0.2884,-2.5577,9.5458,-0.7113,0.2341,3.6078,-1.7086,8.6948,0.8413,3.6278,0.8171,-0.0878,0.1178,9.2872,1.2691,1.5078,0.951007,0,1698648008.99,56
0.0754,0.6282,-0.3583,0.2146,-1.1716,0.656,-0.2183,-2.7163,9.9147,-0.9577,0.0742,3.2945,-1.8585,8.7479,0.8898,3.749,0.4157,0.1882,0.0587,9.3091,1.2134,1.5849,0.90099,0,1698648009.0013,57
0.0796,0.5485,-0.351,0.3607,-1.0767,0.451,-0.1307,-2.6497,9.7025,-0.9866,0.0496,2.7504,-1.7398,8.7895,0.8553,3.8653,0.202,0.2977,0.0255,9.3384,1.1441,1.633,0.850269,0,1698648009.0127,58
0.0826,0.492,-0.3424,0.4994,-0.923,0.1281,-0.0763,-2.5454,9.4436,-0.7602,0.1029,2.0618,-1.4277,8.877,0.8328,3.9324,0.0137,0.191,-0.0011,9.3849,1.0674,1.6228,0.662109,0,1698648009.023,59
0.0859,0.4946,-0.3337,0.5753,-0.8181,-0.219,-0.0868,-2.5068,9.28,-0.4761,0.1273,1.5637,-1.2355,8.9875,0.8576,4.0228,-0.1606,0.0033,0.0081,9.4654,0.9947,1.6074,0.353496,0,1698648009.0341,60
0.0903,0.5012,-0.325,0.5972,-0.7297,-0.4349,-0.1223,-2.417,9.0834,-0.3241,0.1685,1.1605,-1.1008,9.0961,0.8509,4.1191,-0.2959,0.0399,0.0228,9.5769,0.9617,1.6339,0.05131,0,1698648009.0446,60
0.0951,0.4831,-0.3173,0.6005,-0.5486,-0.6171,-0.1302,-2.2323,9.1322,-0.3039,0.168,0.8338,-1.0549,9.2328,0.8449,4.1996,-0.5221,0.5456,0.0309,9.75,0.9596,1.6738,-0.183416,0,1698648009.0547,61
0.0987,0.4396,-0.3109,0.6051,-0.2981,-0.8089,-0.0597,-2.1607,9.2895,-0.286,0.1804,0.591,-1.0125,9.3831,0.8116,4.2709,-0.7557,1.2477,0.0423,9.9329,0.9933,1.7194,-0.365735,0,1698648009.0647,62
0.1016,0.4074,-0.3058,0.5727,-0.1614,-0.9127,0.0351,-2.0725,9.5778,-0.455,0.1594,0.4187,-0.9539,9.5303,0.7716,4.3218,-0.8579,1.7555,0.0597,10.0437,1.0456,1.745,-0.507348,0,1698648009.0751,63
0.1048,0.411,-0.3033,0.4784,-0.2231,-0.9583,0.0977,-1.9746,9.9577,-0.7632,-0.0043,0.3002,-0.8735,9.6558,0.7499,4.3912,-0.9314,2.0306,0.0714,10.1174,1.1261,1.7558,-0.617343,0,1698648009.0853,64
0.1087,0.4055,-0.3031,0.3781,-0.2761,-0.9998,0.1668,-1.9825,10.1168,-0.9186,-0.4162,0.0147,-0.7412,9.7574,0.7611,4.4582,-1.0276,2.3023,0.0636,10.2733,1.1865,1.8366,-0.702779,0,1698648009.0946,65
0.1117,0.3682,-0.3035,0.3022,-0.1205,-1.1615,0.2604,-2.1174,10.2671,-0.7985,-1.1493,-0.7925,-0.5591,10.003,0.7748,4.5087,-1.3145,2.5448,0.031,10.5775,1.1497,2.0696,-0.769139,0,1698648009.1035,65
0.113,0.3017,-0.3036,0.2347,0.1896,-1.4346,0.3247,-2.2223,10.7318,-0.524,-1.7222,-1.6752,-0.4109,10.4322,0.6864,4.5519,-1.8442,2.4367,0.0355,11.0372,1.0167,2.4037,-0.820684,0,1698648009.1129,66
0.113,0.2313,-0.3035,0.1831,0.3828,-1.6859,0.2681,-2.1422,11.3213,-0.212,-1.7854,-2.3139,-0.2626,10.8255,0.518,4.6988,-2.126,2.0527,0.1643,11.4916,0.8254,2.7378,-0.86072,0,1698648009.1228,67
0.1127,0.1818,-0.3034,0.1389,0.4595,-1.8989,0.0809,-2.0069,11.6971,0.0513,-1.5448,-2.9378,0.035,10.9895,0.3273,4.9796,-2.1183,1.9794,0.3292,11.6929,0.6578,3.0032,-0.891817,0,1698648009.1325,68
0.1125,0.1644,-0.3029,0.1184,0.5489,-2.0627,-0.1778,-1.8384,11.9099,0.1684,-1.1039,-3.2469,0.3429,10.8917,0.134,5.3597,-2.2188,2.4815,0.3779,11.6638,0.5116,3.1896,-0.915971,0,1698648009.1436,69
0.1118,0.1282,-0.3017,0.1226,0.401,-2.0971,-0.4775,-1.7476,12.1137,0.1741,-0.7956,-2.8989,0.4346,10.7587,0.0392,5.9215,-2.5108,3.0164,0.3391,11.6541,0.3342,3.4244,-0.934732,0,1698648009.1532,69
0.1095,0.0309,-0.2991,0.1681,-0.0802,-1.8553,-0.6976,-1.6287,12.7052,-0.1893,-0.8867,-2.419,0.4214,10.8433,0.1217,6.3244,-2.7137,2.9759,0.28,11.7548,0.1665,3.7602,-0.949305,0,1698648009.1629,70
0.1045,-0.1464,-0.2946,0.2614,-0.2103,-1.705,-0.7603,-1.7467,13.1174,-0.2599,-1.2132,-2.3258,0.5092,10.9922,0.229,6.3687,-2.5995,2.4536,0.1812,11.8428,0.0496,4.0207,-0.960623,0,1698648009.173,71
0.0953,-0.3688,-0.2886,0.3559,0.0738,-1.7877,-0.7341,-1.9284,12.9519,-0.0522,-1.7318,-2.2815,0.5944,10.9325,0.2536,6.2233,-2.3198,1.915,0.0235,11.7514,0.0071,4.1066,-0.969415,0,1698648009.1828,72
0.0834,-0.6271,-0.2833,0.3931,0.2638,-1.9277,-0.6591,-1.8974,12.7322,-0.0328,-2.2718,-2.2173,0.6393,10.6543,0.1912,5.909,-2.2475,1.564,-0.1978,11.4674,0.018,4.0987,-0.976244,0,1698648009.1918,73
0.0708,-0.8244,-0.2802,0.3544,0.2188,-2.0459,-0.5216,-1.9696,12.6551,-0.0779,-2.8625,-2.2415,0.658,10.278,0.1801,5.6431,-2.5655,1.3254,-0.4864,11.1097,0.0315,4.0359,-0.981548,0,1698648009.2012,73
0.0569,-0.9787,-0.2785,0.3223,0.1958,-2.1718,-0.3305,-2.1413,12.6441,-0.1541,-3.5471,-2.0993,0.4399,9.9127,0.3046,5.5808,-3.0374,1.072,-0.7771,10.7442,0.0404,3.9174,-0.985668,0,1698648009.2112,74
0.042,-1.1471,-0.2764,0.3436,0.391,-2.3999,-0.1198,-2.2053,12.1026,-0.0363,-4.1207,-1.6829,0.0114,9.5527,0.4147,5.5717,-3.3835,0.7353,-1.0387,10.3493,0.0297,3.7842,-0.988868,0,1698648009.2213,75
0.027,-1.2435,-0.2727,0.3817,0.5485,-2.6436,0.083,-1.9954,11.0197,0.2169,-4.6011,-1.1379,-0.4569,9.155,0.4681,5.4406,-3.6114,0.3366,-1.2776,9.905,-0.0244,3.6665,-0.991353,0,1698648009.2311,76
0.0118,-1.2885,-0.2668,0.435,0.7851,-3.0263,0.2431,-1.8816,10.1059,0.5776,-5.1754,-0.8058,-0.8599,8.7213,0.5869,5.2974,-3.6708,-0.0506,-1.5041,9.4319,-0.0824,3.572,-0.993284,0,1698648009.2413,77
-0.0045,-1.3728,-0.2591,0.5332,1.06,-3.4642,0.3828,-1.9255,9.5199,0.9834,-5.6982,-0.5001,-1.236,8.3486,0.6951,5.2252,-3.988,-0.3948,-1.7517,8.9965,-0.1384,3.5332,-0.994783,0,1698648009.2518,77
-0.0224,-1.5002,-0.2494,0.6949,1.1423,-3.8103,0.4913,-1.97,9.2211,1.1958,-5.9627,-0.1084,-1.5792,8.0725,0.6549,5.1651,-4.7797,-0.8002,-1.9925,8.6556,-0.2568,3.5537,-0.995948,0,1698648009.2618,78
-0.0415,-1.5722,-0.2377,0.8103,1.0333,-4.0859,0.5356,-1.891,9.245,1.1463,-6.0115,0.1192,-1.8083,7.9083,0.5227,5.1451,-5.5515,-1.4108,-2.1557,8.432,-0.455,3.6337,-0.996853,0,1698648009.2719,79
-0.0615,-1.6777,-0.2256,0.8304,0.8957,-4.6519,0.5188,-1.8384,9.4972,1.0871,-5.8422,0.2448,-1.9581,7.8494,0.3024,5.1782,-6.0606,-2.1629,-2.1947,8.3594,-0.6893,3.7597,-0.997555,0,1698648009.282,80
-0.0822,-1.8479,-0.2144,0.8773,0.7949,-5.1444,0.4589,-1.6599,9.5469,1.1394,-5.5429,0.3415,-2.0847,7.8529,0.042,5.2417,-6.2746,-2.817,-2.1261,8.4035,-0.9046,3.8611,-0.998101,0,1698648009.2918,81
-0.1027,-1.968,-0.2048,0.8989,0.6816,-5.3625,0.3877,-1.307,9.5307,1.2926,-5.134,0.5172,-2.235,7.9031,-0.2049,5.3452,-6.3359,-3.233,-1.9927,8.4783,-1.1044,3.904,-0.998525,0,1698648009.3013,81
-0.1227,-2.0408,-0.1964,0.8856,0.5765,-5.5821,0.3255,-0.9499,9.5782,1.4078,-4.6868,0.7252,-2.4182,7.994,-0.3967,5.5047,-6.3188,-3.4248,-1.8414,8.5771,-1.2928,3.9152,-0.998854,0,1698648009.3112,82
-0.1425,-2.0807,-0.1886,0.8536,0.4157,-5.619,0.3028,-0.5834,9.7154,1.2693,-4.1853,0.9243,-2.5861,8.1301,-0.523,5.701,-6.1308,-3.423,-1.6745,8.7153,-1.4474,3.9212,-0.99911,0,1698648009.3211,83
-0.162,-2.0185,-0.1816,0.8107,0.1655,-5.5547,0.338,-0.3732,10.0155,1.0121,-3.6116,1.0116,-2.6517,8.2759,-0.6052,5.8693,-5.6755,-3.1839,-1.5065,8.8662,-1.5651,3.909,-0.999309,0,1698648009.3316,84
-0.1808,-1.962,-0.1747,0.7983,-0.0902,-5.3906,0.3994,-0.1111,10.0603,0.831,-3.1098,0.9703,-2.649,8.3923,-0.6518,5.9463,-4.9673,-2.716,-1.3521,9.0032,-1.6172,3.8463,-0.999463,0,1698648009.3413,85
-0.198,-1.8985,-0.1681,0.7824,-0.1772,-5.2153,0.4787,0.1655,9.9677,0.8389,-2.8624,0.8394,-2.5949,8.4526,-0.6775,5.9366,-4.1726,-2.08,-1.2203,9.1074,-1.5698,3.7084,-0.999583,0,1698648009.3512,85
-0.2137,-1.8205,-0.1617,0.7788,-0.0351,-5.1014,0.5973,0.2715,9.6349,1.0547,-2.8764,0.5844,-2.679,8.4502,-0.6911,5.8622,-3.5742,-1.389,-1.1758,9.1641,-1.4364,3.4981,-0.999676,0,1698648009.3612,86
-0.2288,-1.788,-0.1547,0.7793,0.2304,-4.984,0.744,0.2788,9.1407,1.2353,-3.1659,0.0147,-2.6208,8.3981,-0.685,5.6986,-3.4289,-0.7561,-1.2103,9.1576,-1.2711,3.2781,-0.999748,0,1698648009.3711,87
-0.2429,-1.7196,-0.147,0.7733,0.4195,-4.7939,0.8988,0.2751,8.8672,1.2286,-3.851,-0.7559,-2.2211,8.3261,-0.7199,5.4628,-3.581,-0.388,-1.3027,9.1135,-1.1349,3.1363,-0.999805,0,1698648009.3814,88
-0.2564,-1.6067,-0.1387,0.789,0.5613,-4.5601,1.06,0.3278,8.7387,1.1104,-4.5357,-1.4055,-1.8603,8.3206,-0.7831,5.2053,-3.7879,-0.2462,-1.4469,9.0758,-1.0487,3.0888,-0.999848,0,1698648009.3923,89
-0.2698,-1.5258,-0.1293,0.8021,0.7158,-4.3547,1.2099,0.3238,8.7656,1.0335,-4.9201,-1.8479,-1.6645,8.3223,-0.8722,4.9799,-4.1309,-0.0542,-1.6203,9.0294,-1.0036,3.0609,-0.999882,0,1698648009.4019,90
-0.2819,-1.4484,-0.1196,0.8235,0.8136,-4.1219,1.3315,0.3365,8.7314,1.0173,-5.0686,-1.8106,-1.5873,8.2389,-0.9861,4.826,-4.5285,-0.0209,-1.8069,8.952,-0.9943,2.9882,-0.999908,0,1698648009.4116,90
-0.2924,-1.3292,-0.1109,0.8408,0.8512,-3.8823,1.4242,0.4701,8.7545,1.0013,-5.0093,-1.3181,-1.5964,8.1837,-1.0593,4.6845,-4.8204,-0.3155,-1.9724,8.8458,-1.0084,2.8989,-0.999929,0,1698648009.4211,91
-0.3024,-1.2509,-0.1025,0.8408,0.8046,-3.6126,1.4962,0.5862,8.9203,0.964,-4.8951,-0.8758,-1.6427,8.1491,-1.097,4.5687,-5.7799,-0.3432,-1.9611,9.0822,-1.196,2.8014,-0.999945,0,1698648009.4313,92
-0.3118,-1.2028,-0.0936,0.8756,0.765,-3.3427,1.5436,0.7376,9.1009,0.9497,-4.6956,-0.5775,-1.6386,8.0972,-1.1572,4.5119,-6.5602,-0.4287,-2.0214,9.2041,-1.368,2.8971,-0.999957,0,1698648009.4413,93
-0.3202,-1.145,-0.085,0.8866,0.7257,-3.0802,1.5651,0.8631,9.141,1.002,-4.3634,-0.2086,-1.6457,8.0541,-1.2711,4.5001,-6.2109,-0.224,-2.1219,8.9826,-1.412,2.9997,-0.999967,0,1698648009.4516,94
-0.3275,-1.0513,-0.0765,0.8469,0.6338,-2.7842,1.5596,0.9088,9.0976,1.014,-4.0951,0.153,-1.6443,8.0282,-1.3996,4.4926,-5.7011,0.8766,-2.0338,8.9218,-1.4959,2.9815,-0.999974,0,1698648009.4612,94
-0.3338,-0.9376,-0.0682,0.8068,0.5616,-2.5484,1.5332,0.9465,9.1966,0.9883,-3.8424,0.565,-1.6842,8.0409,-1.5195,4.4918,-5.1422,1.5857,-1.9406,8.8878,-1.56,2.9787,-0.99998,0,1698648009.4713,95
-0.3389,-0.8334,-0.0603,0.7782,0.4961,-2.332,1.4922,0.9188,9.164,1.0001,-3.595,0.9695,-1.7688,8.0673,-1.5789,4.5609,-4.3094,1.2358,-1.8734,8.8519,-1.5886,2.9022,-0.999984,0,1698648009.4815,96
-0.3429,-0.7408,-0.0527,0.7672,0.3993,-2.0923,1.4187,0.9136,9.1454,0.9583,-3.327,1.4685,-1.8482,8.097,-1.608,4.7381,-3.5645,0.6563,-1.851,8.863,-1.6045,2.858,-0.999988,0,1698648009.4914,97
-0.3465,-0.6559,-0.0454,0.7599,0.2729,-1.9232,1.3351,0.8218,9.225,0.8812,-2.795,2.318,-2.1033,8.1267,-1.7025,4.7833,-3.2057,0.5974,-1.8379,8.9213,-1.6304,2.8704,-0.999991,0,1698648009.5013,98
-0.3496,-0.5663,-0.038,0.7439,0.1304,-1.7492,1.2421,0.6814,9.2814,0.6954,-2.2207,3.0051,-2.3389,8.1773,-1.7849,4.8007,-2.8717,0.751,-1.8276,8.9634,-1.6554,2.9057,-0.999993,0,1698648009.511,98
-0.3515,-0.4496,-0.0306,0.7384,-0.0561,-1.5519,1.1255,0.657,9.3315,0.4385,-1.6724,3.6249,-2.5041,8.3155,-1.7308,4.6552,-2.3532,0.7298,-1.8146,8.9835,-1.6515,2.9011,-0.999994,0,1698648009.5212,99
-0.352,-0.3384,-0.0232,0.7544,-0.1882,-1.4514,1.0299,0.5515,9.3778,0.2708,-1.1383,4.1404,-2.8684,8.2715,-1.7418,4.3153,-1.8448,0.4942,-1.7815,8.9765,-1.632,2.8446,-0.999996,0,1698648009.5314,0
-0.352,-0.2562,-0.0151,0.7694,-0.2942,-1.3913,0.9521,0.4364,9.4515,0.1422,-0.9305,4.3533,-3.0712,8.1155,-1.7732,4.6369,-1.4686,0.1545,-1.7787,8.9413,-1.6037,2.7774,-0.999997,0,1698648009.5412,1
-0.3519,-0.2028,-0.0068,0.7923,-0.4021,-1.3472,0.8679,0.3996,9.3574,0.0807,-0.7614,4.3133,-2.8649,8.1237,-1.7153,5.1069,-1.1415,-0.2278,-1.8022,8.9052,-1.5403,2.6897,-0.999986,0,1698648009.5517,2
-0.3517,-0.1583,0.0015,0.806,-0.3794,-1.3035,0.788,0.4512,9.171,0.04,-0.4742,3.9243,-2.553,8.0587,-1.6749,5.0684,-0.8491,-0.5078,-1.8085,8.8774,-1.4688,2.5914,-0.99332,0,1698648009.5617,2
-0.3513,-0.1089,0.0103,0.7834,-0.3745,-1.2355,0.7268,0.5215,9.1046,0.0575,-0.2911,3.8454,-2.5195,7.92,-1.6037,4.9171,-0.622,-0.4772,-1.7605,8.8507,-1.4011,2.4952,-0.937813,0,1698648009.5742,3
-0.3498,-0.0406,0.0189,0.7396,-0.9374,-0.9492,0.6767,0.8204,9.3197,-0.3694,-0.0824,4.0543,-2.7295,7.8085,-1.5519,4.7876,-0.4396,-0.1459,-1.6602,8.8032,-1.3366,2.3984,-0.894738,0,1698648009.5851,4
-0.3463,0.0933,0.0253,0.6735,-1.6993,-0.6621,0.5662,1.1536,10.348,-1.1518,0.17,3.8655,-2.7921,7.7524,-1.5822,4.6876,-0.3329,0.3297,-1.5312,8.7557,-1.3027,2.3258,-0.910649,0,1698648009.5968,5
-0.3403,0.249,0.0291,0.5883,-2.021,-0.5242,0.3551,1.1976,11.2081,-1.2991,0.4436,3.2816,-2.4666,7.7086,-1.618,4.6221,-0.3216,0.763,-1.3917,8.7289,-1.3196,2.34,-0.929376,0,1698648009.6069,5
-0.3319,0.3805,0.032,0.4997,-2.0041,-0.2936,0.1128,1.3784,10.709,-1.0692,0.8087,3.0846,-2.086,7.6986,-1.6747,4.6734,-0.352,1.0825,-1.2681,8.7226,-1.3565,2.4374,-0.944783,0,1698648009.6161,6
-0.323,0.5212,0.0346,0.4574,-1.8879,-0.0122,-0.1036,1.6343,9.9835,-0.9267,1.2073,2.8379,-1.6676,7.7114,-1.7267,4.8276,-0.3995,1.3621,-1.1439,8.7334,-1.4087,2.5451,-0.956925,0,1698648009.6263,7
-0.3137,0.6644,0.0377,0.4437,-1.7831,0.3589,-0.2972,1.8649,9.76,-0.8847,1.6114,2.2286,-1.0955,7.7326,-1.7562,4.9578,-0.4184,1.5854,-1.0321,8.7268,-1.4799,2.6143,-0.966342,0,1698648009.6367,8
-0.3038,0.7571,0.0416,0.4221,-1.5586,0.7443,-0.4672,2.051,9.674,-0.893,1.9407,1.7256,-0.5796,7.7586,-1.8146,5.0435,-0.3037,1.6957,-0.9325,8.6945,-1.5612,2.6547,-0.97296,0,1698648009.6467,9
-0.2947,0.7793,0.046,0.4368,-1.2376,1.0982,-0.5771,2.0469,9.4391,-0.7803,2.1386,1.2446,-0.0638,7.7706,-1.8296,5.1325,0.0054,1.6919,-0.8075,8.675,-1.6559,2.6756,-0.963637,0,1698648009.6558,9
-0.287,0.7582,0.0512,0.5043,-0.9942,1.4531,-0.6471,1.9542,9.324,-0.6651,2.3271,0.8189,0.4229,7.8226,-1.815,5.2229,0.5206,1.6378,-0.6438,8.6927,-1.7318,2.6601,-0.740084,0,1698648009.6658,10
-0.2805,0.7359,0.0573,0.551,-0.8316,1.7825,-0.7237,1.8025,9.5599,-0.7024,2.4975,0.3835,0.8342,7.9045,-1.7895,5.2537,1.2268,1.6026,-0.463,8.7473,-1.7481,2.6248,-0.357762,0,1698648009.6749,11
-0.2755,0.6843,0.0633,0.5569,-0.6184,2.041,-0.749,1.4647,9.8078,-0.6777,2.6767,0.0104,1.1392,8.0456,-1.7576,5.2433,2.0454,1.6358,-0.2902,8.8539,-1.6936,2.5845,-0.054615,0,1698648009.6848,12
-0.2718,0.5954,0.0686,0.5457,-0.4417,2.234,-0.7295,1.0399,10.0594,-0.6579,2.8457,-0.2206,1.3011,8.2343,-1.6957,5.2048,2.9148,1.7033,-0.1347,9.0153,-1.5566,2.5327,0.180849,0,1698648009.6937,13
-0.2696,0.4914,0.0735,0.5259,-0.3411,2.3533,-0.6778,0.6532,10.3209,-0.6965,2.9957,-0.3081,1.2896,8.4594,-1.5816,5.1642,3.717,1.7745,-0.0028,9.2267,-1.3554,2.5445,0.363741,0,1698648009.7029,13
-0.2691,0.3742,0.0782,0.5162,-0.2852,2.428,-0.5728,0.3676,10.4294,-0.7145,3.0449,-0.4646,1.1733,8.653,-1.4377,5.1632,4.3401,1.8332,0.1047,9.4938,-1.1296,2.6489,0.505799,0,1698648009.7116,14
-0.2694,0.2919,0.0822,0.5192,-0.2067,2.4844,-0.4179,0.1765,10.4481,-0.7079,2.9076,-0.6731,0.985,8.9304,-1.2826,5.1971,4.7236,1.7544,0.2129,9.8646,-0.9237,2.8347,0.61614,0,1698648009.7215,15
-0.2694,0.2258,0.0861,0.5221,-0.1254,2.4591,-0.1988,0.0243,10.6752,-0.6335,2.7233,-0.8384,0.7688,9.3983,-1.1186,5.3199,4.8612,1.4043,0.3209,10.3755,-0.7713,3.1025,0.701844,0,1698648009.7315,16
-0.2694,0.1616,0.0903,0.5335,-0.0477,2.3986,0.0992,-0.1843,11.1343,-0.5343,2.6834,-1.0461,0.5839,9.9866,-0.9679,5.5661,4.8752,0.8648,0.4363,10.9722,-0.6992,3.3466,0.768414,0,1698648009.7414,16
-0.2694,0.1436,0.0944,0.5144,0.0536,2.286,0.4824,-0.5101,11.7692,-0.4097,2.85,-1.6616,0.4718,10.594,-0.8196,5.8732,4.9363,0.4432,0.6247,11.5314,-0.695,3.4702,0.82012,0,1698648009.7513,17
-0.2693,0.13,0.0971,0.4294,0.0734,2.1082,0.8789,-0.7773,12.4224,-0.3383,3.403,-2.3426,0.4001,10.9613,-0.6766,5.9432,4.9702,0.4003,0.8606,11.891,-0.5854,3.5445,0.860282,0,1698648009.7614,18
-0.2692,0.1151,0.0977,0.323,0.0411,1.9453,1.249,-0.8858,12.6526,-0.2227,4.0796,-2.8996,0.1935,11.044,-0.4635,5.8933,4.6275,0.6286,1.0089,12.1093,-0.3388,3.5846,0.891477,0,1698648009.7716,19
-0.2686,0.1142,0.0974,0.2422,0.0799,1.7515,1.5365,-0.824,12.194,0.2188,4.5353,-3.2981,0.0049,11.1499,-0.1239,6.0154,4.1202,0.9031,1.0516,12.3186,-0.0981,3.5837,0.915707,0,1698648009.7818,20
-0.2677,0.1233,0.0969,0.1842,0.1382,1.4698,1.6627,-0.6724,11.6648,0.8504,4.4666,-3.6162,0.0877,11.4602,0.0289,6.187,3.5173,1.101,1.0243,12.4602,0.0565,3.633,0.934527,0,1698648009.7917,20
-0.2663,0.146,0.0959,0.1016,0.0258,1.2893,1.6746,-0.3328,11.3452,1.306,3.7945,-4.0065,0.2534,11.7281,0.0033,6.4579,2.663,1.1967,0.9485,12.5022,0.0772,3.6787,0.949145,0,1698648009.8011,21
-0.2647,0.1594,0.0936,-0.0165,-0.22,1.2181,1.5254,0.14,11.7771,1.1467,3.1268,-3.9414,0.5082,11.7481,-0.0538,6.7485,1.6083,1.2515,0.8462,12.4194,0.0631,3.7252,0.959606,0,1698648009.8116,22
-0.2628,0.1657,0.0888,-0.1547,-0.1093,1.1304,1.2374,0.3239,12.4705,0.8559,2.4692,-4.1525,1.105,11.6974,-0.224,6.9561,0.3878,1.2608,0.7003,12.1741,0.0697,3.7883,0.753899,0,1698648009.8216,23
-0.2604,0.1761,0.0812,-0.3249,0.2861,1.151,0.9301,0.3069,12.1889,0.9689,1.6807,-4.6301,1.7781,11.5219,-0.4283,6.7896,-0.6728,1.1377,0.5673,11.7679,0.0097,3.8512,0.372211,0,1698648009.8322,23
-0.2564,0.2381,0.0712,-0.4756,0.496,1.2862,0.6156,0.3472,11.4633,1.2021,0.908,-4.4889,2.1885,11.1031,-0.54,6.3366,-1.2358,0.7761,0.5075,11.2308,-0.1145,3.9223,0.066537,0,1698648009.8426,24
-0.2504,0.3464,0.0598,-0.6142,0.5764,1.3973,0.2921,0.4362,11.0369,1.4177,0.1877,-4.0776,2.4476,10.6062,-0.475,6.0626,-1.224,0.2328,0.5028,10.6127,-0.2852,4.0127,-0.159407,0,1698648009.8516,25
-0.2428,0.4717,0.0482,-0.7534,0.6372,1.5457,-0.0385,0.5331,10.5787,1.5213,-0.6011,-3.9404,2.6966,10.1281,-0.3587,5.9793,-0.7368,-0.3843,0.5486,9.9896,-0.4739,4.0969,-0.2022,0,1698648009.8614,26
-0.233,0.6222,0.0352,-0.8734,0.6409,1.7667,-0.3694,0.5213,10.0729,1.531,-1.2768,-3.6268,2.8141,9.6671,-0.2678,5.9299,0.1999,-0.9685,0.6915,9.4112,-0.5994,4.1046,-0.024534,0,1698648009.8715,27
-0.2209,0.7698,0.02,-0.9868,0.5671,2.0448,-0.6946,0.4615,9.9561,1.4914,-1.7224,-3.0347,2.8023,9.1955,-0.1732,5.7077,1.4608,-1.4384,0.9253,8.8521,-0.625,4.0472,0.202758,0,1698648009.8818,27
-0.2081,0.8996,0.0035,-1.0789,0.5328,2.3307,-0.9633,0.3849,9.7501,1.5689,-2.1119,-2.6037,2.8349,8.7062,-0.0561,5.4056,2.8118,-1.7813,1.1946,8.3578,-0.5657,3.9459,0.379707,0,1698648009.8912,28
-0.1962,0.9854,-0.0141,-1.2414,0.5095,2.5349,-1.1474,0.2191,9.3384,1.8443,-2.1256,-2.1437,2.8687,8.2605,0.0289,5.1182,4.012,-1.999,1.4558,7.9735,-0.4676,3.8322,0.518188,0,1698648009.9015,29
-0.186,0.9822,-0.0325,-1.4266,0.1839,2.7805,-1.2622,0.1937,9.1384,1.8657,-1.769,-1.6808,2.9324,7.868,0.153,5.0779,4.8292,-2.0437,1.6944,7.7247,-0.3366,3.7301,0.625762,0,1698648009.9116,30
-0.1773,0.9371,-0.0513,-1.595,-0.3427,2.9959,-1.3182,0.1769,9.366,1.5678,-1.1749,-1.1183,2.8976,7.6067,0.3701,5.1929,5.0753,-1.8279,1.9565,7.632,-0.1512,3.6689,0.709319,0,1698648009.9215,30
-0.1701,0.8929,-0.0705,-1.7606,-0.7533,3.1138,-1.2935,-0.1034,9.5885,1.3784,-0.2593,-0.4233,2.6319,7.5446,0.5252,5.0844,4.8489,-1.4327,2.2469,7.6693,0.0578,3.6697,0.774219,0,1698648009.932,31
-0.1636,0.8586,-0.0912,-1.8655,-1.0612,3.1841,-1.1976,-0.4994,9.4259,1.3865,0.7501,0.1115,2.3293,7.5784,0.7017,4.886,4.4361,-1.0448,2.5152,7.8183,0.2551,3.7233,0.824629,0,1698648009.9421,32
-0.1569,0.8363,-0.1125,-1.8906,-1.2851,3.1475,-1.0975,-0.9291,9.2726,1.4722,1.6629,0.5354,2.0363,7.6982,0.9463,4.8107,3.9247,-0.8228,2.7474,8.0345,0.4482,3.8168,0.863784,0,1698648009.9516,33
-0.1502,0.8205,-0.1323,-1.8578,-1.2765,3.0457,-1.0002,-1.3281,9.1589,1.5658,2.5397,0.9081,1.8521,7.8974,1.1363,4.7977,3.3024,-0.7969,2.926,8.3018,0.6429,3.9273,0.894197,0,1698648009.961,34
-0.1433,0.8404,-0.1522,-1.8202,-1.0526,2.8977,-0.9059,-1.6343,8.7578,1.766,3.3818,1.2811,1.8156,8.1213,1.2568,4.7392,2.8157,-0.9037,3.0435,8.6161,0.8301,4.0426,0.91782,0,1698648009.9713,34
-0.1357,0.85,-0.1722,-1.8114,-0.8045,2.7333,-0.8258,-1.8013,8.2178,1.9431,3.9712,1.6654,1.7626,8.361,1.3302,4.6655,2.7521,-1.0703,3.0734,8.9311,0.9849,4.1201,0.936168,0,1698648009.9813,35
-0.128,0.8218,-0.1908,-1.8162,-0.5548,2.7539,-0.773,-1.8618,7.8524,2.0432,4.2099,1.894,1.6319,8.5774,1.3508,4.5959,2.8373,-1.1638,3.0173,9.2546,1.0739,4.1036,0.95042,0,1698648009.9912,36
-0.1205,0.7714,-0.2075,-1.7907,-0.2432,2.573,-0.7541,-2.0138,7.7072,2.0513,4.0749,1.8458,1.4877,8.7545,1.3133,4.5154,2.4323,-1.0209,2.3023,9.744,1.3586,3.7088,0.96149,0,1698648010.0012,37
-0.1132,0.7419,-0.2224,-1.7196,0.0517,2.2127,-0.7488,-2.1567,7.6717,1.8905,3.8252,1.5271,1.4372,8.867,1.1811,4.4486,2.4542,-2.281,1.4324,9.9704,1.3727,3.3239,0.970088,0,1698648010.0114,38
-0.1058,0.7555,-0.236,-1.634,0.1845,2.1015,-0.766,-2.1082,7.8286,1.6691,3.6381,1.0264,1.4805,8.9218,0.9527,4.4357,3.5323,-3.4515,1.09,9.8309,1.0634,3.3571,0.976766,0,1698648010.0213,38
-0.0983,0.7639,-0.2488,-1.5308,0.2722,2.0339,-0.8194,-2.0424,8.2147,1.4581,3.3555,0.497,1.5134,8.914,0.7406,4.4166,4.4429,-2.0845,0.8163,9.7237,0.9486,3.4685,0.981954,0,1698648010.0312,39
-0.0906,0.7682,-0.261,-1.4497,0.4162,1.9592,-0.8924,-1.9483,8.5384,1.3076,2.9562,0.0371,1.4715,8.8503,0.5847,4.4114,4.4268,-0.1169,0.6805,9.5596,0.8088,3.4031,0.98598,0,1698648010.0413,40
-0.0829,0.7734,-0.2727,-1.4136,0.5392,1.8748,-0.9696,-1.772,8.7239,1.2281,2.5549,-0.3371,1.3334,8.7741,0.4713,4.4582,4.173,0.1204,0.6832,9.2967,0.6364,3.1068,0.989103,0,1698648010.0513,41
-0.0754,0.7597,-0.2841,-1.3578,0.6261,1.7922,-1.0321,-1.6287,8.8695,1.1733,2.233,-0.6635,1.1178,8.6815,0.4036,4.5255,4.0782,-1.6485,0.6001,9.0259,0.5177,2.8311,0.991527,0,1698648010.0612,41
-0.0683,0.7397,-0.2952,-1.3065,0.6374,1.7323,-1.0891,-1.4815,8.9471,1.123,2.0588,-0.9869,0.8908,8.5895,0.3288,4.5919,3.518,-3.6684,0.4665,8.8594,0.3577,2.7306,0.993415,0,1698648010.0724,42
-0.0608,0.7413,-0.3069,-1.294,0.4817,1.7344,-1.1778,-1.3231,9.2043,0.985,1.9925,-1.3754,0.6795,8.5234,0.2924,4.6,2.5587,-4.6664,0.4266,8.8076,0.2595,2.6486,0.994885,0,1698648010.0818,43
-0.0534,0.7584,-0.3187,-1.2984,0.2202,1.8203,-1.2628,-1.2453,9.5923,0.756,2.4796,-1.2135,0.7275,8.3122,0.0179,4.4504,1.4463,-3.634,0.3471,8.8511,0.2576,2.6845,0.996027,0,1698648010.0972,44
-0.045,0.7505,-0.3325,-1.2553,-0.2476,1.9425,-1.3371,-1.381,9.9692,0.5083,3.2267,-1.859,1.5607,8.2333,-0.1969,4.204,1.5682,-1.7,0.4877,8.9137,0.0786,2.66,0.996861,0,1698648010.1138,45
-0.0345,0.7184,-0.3493,-1.2172,-0.4724,2.034,-1.3329,-1.4362,9.7603,0.4894,3.3726,-1.8882,1.6915,8.3251,-0.2082,4.1407,2.5714,-1.4118,0.7055,9.0112,-0.0748,2.5715,0.997508,0,1698648010.1231,45
-0.0257,0.7135,-0.3638,-1.219,-0.722,2.0795,-1.3228,-1.4755,9.5409,0.5046,3.1715,-1.8266,1.6176,8.4017,-0.0873,4.1402,3.8695,-1.4146,0.8475,9.0263,-0.1341,2.4442,0.998057,0,1698648010.1341,46
-0.0188,0.7265,-0.3744,-1.192,-0.8972,2.0713,-1.2757,-1.6213,9.4873,0.4743,2.9616,-1.8171,1.5303,8.4443,0.018,4.0422,4.8898,-1.1935,0.8683,8.9701,0.0395,2.4258,0.998304,0,1698648010.1435,47
-0.0123,0.7359,-0.3833,-1.1109,-0.9872,2.0582,-1.1787,-1.6955,9.3371,0.4721,2.6102,-1.8011,1.3953,8.479,0.1012,3.9439,5.4062,-0.2361,0.9007,9.0021,0.2329,2.4102,0.997853,0,1698648010.1535,48
-0.0056,0.7224,-0.3903,-0.969,-1.069,1.967,-1.0641,-1.7085,9.1064,0.5401,2.2137,-1.6652,1.148,8.5122,0.2003,3.847,5.6445,0.5945,0.9556,9.0588,0.3535,2.2495,0.997676,0,1698648010.1636,48
