right_q,right_q_dot,left_q,left_q_dot,pelv_ang_1,pelv_ang_2,pelv_ang_3,pelv_acc_1,pelv_acc_1,pelv_acc_3,right_back_ang_x,right_back_ang_y,right_back_ang_z,right_back_acc_x,right_back_acc_y,right_back_acc_z,left_back_ang_x,left_back_ang_y,left_back_ang_z,left_back_acc_x,left_back_acc_y,left_back_acc_z,,,,Label
-0.3925,-0.2394,-0.0417,-0.0079,-1.2243,-0.2406,0.729,0.9155,9.971,1.4233,-0.9818,1.1596,0.0181,9.733,-3.117,1.2224,-2.1924,0.2068,0.2223,10.2943,-1.0202,0.5918,-0.999455,0,1698374128.3359,0
-0.3925,-0.184,-0.0417,0.0072,-1.2489,-0.2335,0.7048,0.8886,9.8289,1.426,-1.0313,1.2327,-0.0035,9.6401,-3.052,1.1189,-2.1579,0.1715,0.1458,10.1937,-1.0063,0.5356,-0.999505,0,1698374128.3459,1
-0.3925,-0.1411,-0.0417,0.0185,-1.2988,-0.2519,0.6409,0.8572,9.7395,1.3957,-0.9906,1.287,-0.0526,9.5268,-3.0165,1.1054,-2.0425,0.1169,0.0762,10.0848,-1.0007,0.4772,-0.999525,0,1698374128.356,1
-0.3924,-0.1093,-0.0417,0.0273,-1.3554,-0.2934,0.5324,0.8815,9.7381,1.3898,-0.8286,1.4237,-0.0942,9.3968,-3.0258,1.0965,-1.8301,0.0804,-0.001,9.966,-1.015,0.4415,-0.999488,0,1698374128.3661,2
-0.3924,-0.0845,-0.0417,0.027,-1.4036,-0.3521,0.3877,0.9648,9.7003,1.3935,-0.8058,1.6287,-0.1248,9.2838,-3.0242,1.0778,-1.5075,0.1398,-0.0805,9.8636,-1.0563,0.4338,-0.999237,0,1698374128.3762,3
-0.3923,-0.0617,-0.0417,0.0235,-1.424,-0.4087,0.2522,1.0255,9.5485,1.3544,-0.8972,1.6925,-0.1656,9.145,-3.0545,1.1119,-1.0865,0.3266,-0.1473,9.7723,-1.1068,0.4444,-0.998696,0,1698374128.3863,4
-0.3921,-0.0401,-0.0417,0.0275,-1.4594,-0.457,0.13,1.0125,9.4481,1.4497,-0.9069,1.599,-0.2169,9.0463,-3.1024,1.0465,-0.6777,0.6004,-0.2001,9.7013,-1.1682,0.4558,-0.99813,0,1698374128.3962,4
-0.3921,-0.0225,-0.0417,0.0366,-1.5057,-0.4792,0.0129,1.019,9.3751,1.6092,-0.7959,1.4453,-0.2746,9.0089,-3.1422,1.0224,-0.3406,0.9289,-0.2394,9.6481,-1.2333,0.4759,-0.997896,0,1698374128.4063,5
-0.392,-0.0128,-0.0417,0.0167,-1.5417,-0.2509,-0.0909,1.0969,9.2476,1.6805,-0.5776,1.2637,-0.3408,8.9815,-3.1975,1.1311,-0.054,1.288,-0.2614,9.6135,-1.29,0.5054,-0.997964,0,1698374128.416,6
-0.392,-0.0088,-0.0417,-0.0159,-1.6079,-0.0353,-0.1919,1.1952,9.214,1.6754,-0.3595,1.1713,-0.4092,8.9559,-3.2477,1.23,0.1678,1.6659,-0.2794,9.5914,-1.3421,0.5548,-0.998053,0,1698374128.4256,6
-0.3917,0.0074,-0.0417,-0.0098,-1.7123,-0.0332,-0.2917,1.2935,9.3897,1.6231,-0.139,1.1216,-0.493,8.9528,-3.2388,1.2911,0.3494,2.0471,-0.3044,9.5734,-1.3657,0.5988,-0.998076,0,1698374128.4359,7
-0.3906,0.0401,-0.0417,0.0211,-1.8828,0.0051,-0.4161,1.3449,9.8242,1.4256,0.1371,1.0277,-0.5922,8.9457,-3.219,1.3736,0.5143,2.4003,-0.3417,9.5541,-1.373,0.6383,-0.998037,0,1698374128.4462,8
-0.388,0.1002,-0.0417,0.0315,-1.8874,0.0545,-0.5433,1.3867,9.876,1.1787,0.4002,0.8899,-0.6786,8.9029,-3.2564,1.4018,0.6858,2.6891,-0.3971,9.5372,-1.3977,0.6757,-0.997707,0,1698374128.4561,9
-0.3846,0.1571,-0.0417,0.0261,-1.9455,0.1124,-0.6516,1.3946,9.4036,1.1611,0.6011,0.6594,-0.7441,8.8438,-3.3035,1.3609,0.8762,2.8811,-0.4725,9.5279,-1.4217,0.7164,-0.996277,0,1698374128.4678,9
-0.3806,0.1866,-0.0415,0.0229,-2.0298,0.2273,-0.7774,1.4564,9.1807,1.2437,0.7537,0.3704,-0.8043,8.8121,-3.3335,1.3334,1.0334,2.9552,-0.5669,9.5401,-1.4342,0.7628,-0.992493,0,1698374128.4764,10
-0.3768,0.2179,-0.0413,0.0268,-1.8294,0.337,-0.9331,1.5538,9.2853,1.3364,0.8808,0.1314,-0.857,8.823,-3.345,1.373,1.1479,2.9131,-0.6641,9.5694,-1.4399,0.7785,-0.983711,0,1698374128.4861,11
-0.3733,0.2526,-0.0411,0.029,-1.5792,0.4077,-1.0915,1.5768,9.3662,1.3692,1.0324,-0.0389,-0.9124,8.8614,-3.3288,1.4511,1.2257,2.7755,-0.7685,9.6095,-1.4259,0.7883,-0.964684,0,1698374128.4965,11
-0.369,0.292,-0.0409,0.0243,-1.3005,0.4865,-1.2273,1.5521,9.2522,1.227,1.2234,-0.1805,-0.981,8.8987,-3.2871,1.5301,1.2393,2.5775,-0.8871,9.6548,-1.3854,0.8154,-0.926687,0,1698374128.5059,12
-0.3643,0.3454,-0.0407,0.0217,-1.0227,0.6056,-1.3405,1.4753,9.1481,1.1171,1.3947,-0.2854,-1.0514,8.9282,-3.22,1.5996,1.1757,2.3478,-1.0202,9.6828,-1.31,0.8427,-0.837009,0,1698374128.5159,13
-0.3599,0.3766,-0.0399,0.0428,-0.8426,0.7612,-1.4386,1.298,9.3099,1.058,1.4946,-0.3848,-1.1282,8.9634,-3.1422,1.6425,1.0649,2.0945,-1.1772,9.6741,-1.2202,0.887,-0.632292,0,1698374128.5268,13
-0.3564,0.3461,-0.038,0.0983,-0.6781,0.9273,-1.5276,1.0565,9.499,0.9546,1.5543,-0.5182,-1.2015,9.0054,-3.0948,1.6342,1.0121,1.798,-1.3383,9.6443,-1.1505,0.9461,-0.329199,0,1698374128.5361,14
-0.3539,0.29,-0.0353,0.1629,-0.5801,1.1363,-1.6249,1.0871,9.5165,0.8045,1.5844,-0.6943,-1.2677,9.0368,-3.0693,1.6179,1.0538,1.4279,-1.4738,9.614,-1.1228,0.9877,-0.225401,0,1698374128.5462,15
-0.352,0.2559,-0.0321,0.2026,-0.5168,1.2876,-1.7286,1.3044,9.7198,0.7187,1.5703,-0.9069,-1.344,9.0673,-3.0339,1.5859,1.1407,0.9743,-1.5755,9.588,-1.1157,1.0045,-0.364423,0,1698374128.5561,16
-0.3506,0.223,-0.0287,0.2372,-0.2401,1.3839,-1.8065,1.4357,9.8016,0.8035,1.5373,-1.1283,-1.4313,9.1136,-2.9987,1.5328,1.2278,0.4439,-1.6571,9.5935,-1.0824,1.0368,-0.506327,0,1698374128.5663,16
-0.3499,0.1744,-0.0253,0.2653,0.1376,1.468,-1.8577,1.4434,9.6374,1.017,1.5491,-1.3871,-1.5323,9.2031,-2.9674,1.4723,1.252,-0.1258,-1.7128,9.667,-1.0482,1.0729,-0.616549,0,1698374128.5761,17
-0.3499,0.1199,-0.0222,0.2515,0.4796,1.5137,-1.8702,1.3333,9.5309,1.2857,1.6511,-1.7118,-1.6492,9.3566,-2.9224,1.3838,1.148,-0.6484,-1.7203,9.8329,-1.0404,1.1199,-0.702162,0,1698374128.5859,18
-0.3499,0.0861,-0.0203,0.2332,0.7758,1.5756,-1.8296,1.1583,9.5731,1.5008,1.8088,-2.05,-1.7646,9.565,-2.9017,1.3344,0.9523,-1.0764,-1.6835,10.1058,-1.014,1.1852,-0.76866,0,1698374128.5965,18
-0.3499,0.0731,-0.0198,0.2002,1,1.6314,-1.7256,0.9053,9.8229,1.6687,2.0011,-2.3664,-1.8697,9.8632,-2.907,1.3652,0.7789,-1.4038,-1.6251,10.458,-0.9219,1.2525,-0.820309,0,1698374128.6057,19
-0.3499,0.0568,-0.0199,0.1491,1.1153,1.6424,-1.5247,0.6291,10.1192,1.8106,2.2008,-2.6335,-1.9427,10.2675,-2.8603,1.4546,0.6988,-1.607,-1.5687,10.8135,-0.7579,1.3511,-0.860425,0,1698374128.6166,20
-0.3499,0.0467,-0.02,0.1136,1.187,1.5912,-1.24,0.3585,10.4358,1.9278,2.3516,-2.7923,-1.9705,10.7232,-2.727,1.604,0.6281,-1.6898,-1.5325,11.1376,-0.5412,1.4784,-0.891582,0,1698374128.626,21
-0.3499,0.0557,-0.0203,0.0825,1.2887,1.4773,-0.9166,0.0409,10.7482,2.0105,2.3742,-2.7708,-1.9656,11.1424,-2.5567,1.7994,0.464,-1.6578,-1.5214,11.4132,-0.3077,1.5901,-0.915781,0,1698374128.6362,21
-0.3499,0.0605,-0.0214,0.022,1.4605,1.4162,-0.5964,-0.0917,10.7249,2.0721,2.1719,-2.5292,-1.9099,11.4302,-2.3656,1.9784,0.2505,-1.5145,-1.5308,11.6024,-0.095,1.706,-0.934576,0,1698374128.6463,22
-0.3499,0.0534,-0.0238,-0.0543,1.7517,1.1829,-0.3212,-0.1108,10.3981,2.2423,1.7931,-2.1139,-1.7822,11.5248,-2.1789,2.0849,0.1307,-1.3214,-1.5755,11.6467,0.0816,1.8434,-0.94917,0,1698374128.6562,23
-0.3492,0.0866,-0.0277,-0.1623,1.9523,0.9488,-0.1373,-0.1842,10.2266,2.2703,1.2817,-1.5716,-1.585,11.4579,-2.054,2.131,0.2337,-1.1756,-1.6767,11.5387,0.2472,1.9591,-0.960508,0,1698374128.6665,23
-0.3472,0.1483,-0.0337,-0.2971,1.8234,0.9076,-0.1036,-0.1422,10.2056,2.0847,0.6057,-0.9756,-1.3518,11.326,-1.9703,2.0863,0.5412,-1.111,-1.8235,11.3161,0.3565,2.0127,-0.969307,0,1698374128.6757,24
-0.343,0.2487,-0.0414,-0.4077,1.6969,0.8424,-0.1779,0.0127,10.1466,2.0436,-0.0233,-0.4249,-1.1434,11.1583,-1.9502,1.9257,0.7357,-0.8955,-1.9315,11.0838,0.345,2.0038,-0.976092,0,1698374128.6864,25
-0.3365,0.3598,-0.0503,-0.4942,1.776,0.8122,-0.2944,0.1793,10.1015,2.1513,-0.3593,-0.0287,-0.9849,10.9674,-1.9907,1.7227,0.9567,-0.8841,-1.9771,10.8294,0.2344,1.9047,-0.980135,0,1698374128.6964,26
-0.3275,0.4679,-0.0605,-0.6176,1.7939,0.845,-0.4744,0.3563,10.0967,2.3653,-0.4464,0.1274,-0.8584,10.7689,-2.0497,1.5754,1.4888,-1.0942,-2.0526,10.5219,0.1323,1.7691,-0.969935,0,1698374128.7064,26
-0.3166,0.6343,-0.0723,-0.8148,1.8018,0.919,-0.6722,0.447,10.1125,2.6232,-0.3462,0.0875,-0.7379,10.5431,-2.0763,1.4912,2.1825,-0.8807,-2.1061,10.2104,0.0601,1.7427,-0.950735,0,1698374128.7167,27
-0.3048,0.8172,-0.0854,-1.0166,1.8395,1.0157,-0.8352,0.4277,9.8907,2.8519,-0.1653,-0.1104,-0.6265,10.2971,-2.0357,1.4424,2.8602,-0.4252,-2.059,9.8767,0.0153,1.716,-0.870731,0,1698374128.7264,28
-0.2929,0.95,-0.1,-1.1385,1.7384,1.1224,-0.9771,0.3597,9.8573,2.8988,0.1065,-0.4389,-0.5408,10.0066,-1.9412,1.4563,3.2766,0.0028,-1.9312,9.5376,0.0591,1.7036,-0.607781,0,1698374128.7364,28
-0.2816,1.0135,-0.1163,-1.2151,1.5738,1.2282,-1.0626,0.1431,10.0097,2.8334,0.5272,-0.8381,-0.4828,9.7516,-1.7458,1.4946,3.3266,0.1878,-1.7195,9.2524,0.2112,1.7239,-0.272442,0,1698374128.7469,29
-0.2713,1.0083,-0.1342,-1.3261,1.2994,1.3829,-1.0839,-0.1201,9.7592,2.9251,0.952,-1.2222,-0.4522,9.5995,-1.449,1.6647,3.0015,-0.0239,-1.446,9.0762,0.4786,1.7439,-0.033721,0,1698374128.756,30
-0.2624,0.9509,-0.1537,-1.4805,0.9337,1.4911,-1.0604,-0.3362,9.6202,3.0519,1.2905,-1.5956,-0.4667,9.5281,-1.0904,1.9166,2.3902,-0.5965,-1.1756,8.9987,0.8289,1.7894,-0.007294,0,1698374128.7662,30
-0.2549,0.8985,-0.1749,-1.672,0.6309,1.4873,-1.0071,-0.5661,9.6689,3.1175,1.6488,-1.9675,-0.5113,9.5924,-0.7282,2.0983,1.6665,-1.5312,-0.9553,8.9329,1.1617,1.6278,-0.171602,0,1698374128.7759,31
-0.2483,0.8516,-0.1978,-1.8498,0.3071,1.5049,-0.9258,-0.7572,9.7602,3.0621,2.118,-2.2392,-0.5451,9.7373,-0.4092,2.2788,1.188,-2.0732,-0.7246,8.9246,1.4346,1.5503,-0.349421,0,1698374128.786,32
-0.2423,0.7971,-0.2218,-2.0032,-0.033,1.5219,-0.8395,-0.8712,9.9914,2.9431,2.6666,-2.36,-0.5602,9.8797,-0.1795,2.4695,1.3054,-1.3975,-0.4491,9.067,1.7057,1.8307,-0.494114,0,1698374128.7957,33
-0.2368,0.7335,-0.2457,-2.0785,-0.3893,1.53,-0.7666,-1.0565,10.1243,2.8882,3.148,-2.2723,-0.5669,10.0358,-0.0474,2.659,1.977,0.1288,-0.2317,9.2652,1.92,2.1543,-0.385133,0,1698374128.8056,33
-0.2317,0.6756,-0.2687,-2.141,-0.6617,1.5687,-0.7142,-1.3276,10.1018,2.8179,3.3234,-1.9246,-0.578,10.1896,0.0298,2.8273,2.7883,1.6866,-0.079,9.4847,1.9918,2.3824,-0.077387,0,1698374128.8157,34
-0.2268,0.6299,-0.29,-2.1706,-0.7745,1.5255,-0.7076,-1.6077,9.9486,2.8136,3.1392,-1.3819,-0.5824,10.3197,0.0368,2.9164,3.2293,2.6657,0.0132,9.7055,1.9602,2.4823,0.163161,0,1698374128.8258,35
-0.2227,0.5691,-0.3092,-2.1159,-0.7768,1.3743,-0.74,-1.8833,9.8371,2.8752,2.7056,-0.7652,-0.5568,10.4273,0.0022,2.8909,3.1876,2.9413,0.0166,9.8742,1.8886,2.4963,0.350003,0,1698374128.8363,35
-0.2194,0.5213,-0.3264,-2.0223,-0.6756,1.1316,-0.8409,-2.1537,9.8636,2.863,2.1242,-0.1541,-0.496,10.4931,-0.0565,2.7907,2.8066,2.8256,-0.0208,9.9735,1.8151,2.5074,0.495128,0,1698374128.8459,36
-0.2159,0.4965,-0.3411,-1.8426,-0.6191,0.961,-1.0148,-2.2967,9.7029,2.7727,1.5328,0.3649,-0.419,10.5189,-0.1405,2.6476,2.1809,2.5201,-0.0635,10.018,1.7291,2.5316,0.607851,0,1698374128.8558,37
-0.2119,0.4742,-0.3532,-1.6417,-0.5411,0.7918,-1.23,-2.2532,9.4404,2.7566,1.0906,0.7518,-0.3362,10.494,-0.2448,2.49,1.4273,2.0834,-0.0992,10.0061,1.6102,2.5429,0.694944,0,1698374128.8663,38
-0.2075,0.4628,-0.3633,-1.4597,-0.3092,0.5275,-1.4423,-2.2336,9.146,2.9055,0.8084,1.0591,-0.2471,10.421,-0.3636,2.3724,0.6536,1.5328,-0.1372,9.9407,1.5173,2.4891,0.634087,0,1698374128.8758,38
-0.2034,0.4471,-0.3717,-1.2829,-0.055,0.3077,-1.6481,-2.1791,8.9854,2.8937,0.6097,1.3404,0.0598,10.325,-0.4699,2.2963,0.0279,1.0013,-0.1829,9.8383,1.4567,2.373,0.408788,0,1698374128.8858,39
-0.1993,0.4393,-0.3787,-1.1287,0.1169,0.1532,-1.8599,-2.0133,9.062,2.6704,0.4084,1.605,0.317,10.2204,-0.5592,2.2062,-0.2987,0.6966,-0.2252,9.7216,1.3903,2.2711,0.169876,0,1698374128.8966,40
-0.1947,0.4674,-0.3852,-1.0139,0.2078,0.0621,-2.0483,-1.7696,9.1597,2.5333,0.1652,1.807,0.3173,10.1024,-0.6527,2.13,-0.3623,0.5861,-0.2444,9.6187,1.3198,2.1823,-0.040884,0,1698374128.9059,40
-0.1893,0.4877,-0.3913,-0.9306,0.3176,-0.0035,-2.1699,-1.5405,9.1086,2.4932,-0.0101,1.895,0.3226,9.9754,-0.7445,2.0773,-0.324,0.5087,-0.2286,9.504,1.2666,2.1112,-0.214216,0,1698374128.9168,41
-0.1839,0.482,-0.3971,-0.8993,0.4677,-0.0195,-2.2098,-1.3796,9.0018,2.4702,0.0336,1.8635,0.3234,9.8535,-0.7925,2.0168,-0.3513,0.2714,-0.1891,9.3759,1.2299,2.0421,-0.350014,0,1698374128.9265,42
-0.1783,0.5089,-0.4034,-0.8767,0.4794,0.0328,-2.2136,-1.217,9.076,2.4067,0.238,1.7071,0.3146,9.746,-0.8085,1.9952,-0.4569,-0.1174,-0.1397,9.2663,1.2209,1.9777,-0.465636,0,1698374128.9358,43
-0.172,0.5767,-0.4102,-0.8355,0.3769,0.1305,-2.1645,-1.0904,9.2655,2.3069,0.5441,1.4662,0.2933,9.655,-0.8067,2.0196,-0.4852,-0.4041,-0.0595,9.1747,1.2339,1.9536,-0.55628,0,1698374128.9467,43
-0.1656,0.6066,-0.4176,-0.8401,0.3135,0.2686,-2.0514,-0.9956,9.4292,2.2229,0.8799,1.2186,0.2623,9.5814,-0.7561,2.0468,-0.4194,-0.5245,0.0394,9.0921,1.2606,1.9301,-0.584532,0,1698374128.9573,44
-0.1589,0.6178,-0.426,-0.844,0.1287,0.4535,-1.9141,-0.865,9.5924,2.1232,1.1458,1.0067,0.2271,9.5266,-0.677,2.0715,-0.3266,-0.5814,0.1179,9.0303,1.3032,1.906,-0.572785,0,1698374128.9673,45
-0.1522,0.6546,-0.4344,-0.8291,-0.1222,0.603,-1.7453,-0.7958,9.8475,1.9918,1.2757,0.906,0.1998,9.4806,-0.6012,2.1139,-0.2067,-0.5924,0.1789,8.9978,1.3609,1.8629,-0.564242,0,1698374128.977,45
-0.1459,0.6664,-0.4424,-0.828,-0.3358,0.7447,-1.5476,-0.8769,9.8804,1.9009,1.3152,0.8815,0.1683,9.4689,-0.5315,2.1278,-0.1179,-0.5924,0.2484,9.0004,1.4226,1.7819,-0.55165,0,1698374128.9869,46
-0.1398,0.6665,-0.4497,-0.8165,-0.6048,0.9332,-1.3302,-0.9366,9.6636,1.9084,1.3911,0.848,0.12,9.5162,-0.4641,2.0828,-0.0736,-0.5131,0.3493,9.0483,1.4665,1.7505,-0.533874,0,1698374128.9972,47
-0.1339,0.6423,-0.4564,-0.7926,-0.8854,1.0881,-1.0975,-1.0375,9.639,1.9783,1.531,0.7998,0.0544,9.6065,-0.3887,2.0344,-0.0861,-0.2947,0.4847,9.1366,1.5038,1.7688,-0.532197,0,1698374129.0066,48
-0.1287,0.586,-0.4626,-0.7583,-1.1485,1.1939,-0.8706,-1.2423,9.7666,1.9581,1.6643,0.7496,-0.0094,9.6928,-0.3526,2.026,-0.1623,-0.0118,0.6283,9.2453,1.5453,1.7855,-0.565257,0,1698374129.0161,48
-0.124,0.5421,-0.4677,-0.7071,-1.4039,1.2599,-0.6553,-1.4888,9.8465,1.8336,1.8071,0.6279,-0.0666,9.762,-0.3401,1.9588,-0.2112,0.3196,0.7517,9.3538,1.5877,1.815,-0.616407,0,1698374129.0258,49
-0.1195,0.526,-0.4724,-0.6542,-1.5368,1.2737,-0.4726,-1.808,9.9026,1.7364,1.9956,0.4985,-0.1102,9.83,-0.3149,1.8574,-0.1955,0.7432,0.8484,9.4386,1.6204,1.8628,-0.66193,0,1698374129.0377,50
-0.1149,0.5179,-0.4764,-0.5897,-1.5854,1.2222,-0.3197,-2.052,9.8527,1.7028,2.1794,0.5087,-0.1355,9.8833,-0.3038,1.85,-0.0956,1.2597,0.9048,9.498,1.6396,1.8981,-0.693011,0,1698374129.0474,50
-0.1104,0.4837,-0.4791,-0.4901,-1.6734,1.1694,-0.1617,-2.2294,9.5753,1.7056,2.2583,0.6215,-0.1466,9.8934,-0.2945,1.8828,0.0392,1.7359,0.929,9.5332,1.6508,1.9051,-0.688954,0,1698374129.0573,51
-0.1065,0.4399,-0.48,-0.3791,-1.7171,1.1105,-0.0083,-2.3784,9.1772,1.7067,2.1611,0.7713,-0.1229,9.8703,-0.2864,1.8673,0.1719,2.0256,0.9137,9.5256,1.6563,1.9069,-0.583476,0,1698374129.0673,52
-0.1026,0.4369,-0.4799,-0.2845,-1.8115,1.0486,0.1049,-2.3066,8.9463,1.6755,1.9731,0.9149,-0.0619,9.8218,-0.2932,1.819,0.3501,2.053,0.8294,9.4849,1.6488,1.8967,-0.375837,0,1698374129.0767,52
-0.0982,0.4645,-0.4797,-0.2174,-1.8704,0.9621,0.1928,-2.1441,8.8159,1.7597,1.7956,1.0563,0.0239,9.7618,-0.3177,1.7967,0.6196,1.9064,0.7196,9.4415,1.6299,1.891,-0.147605,0,1698374129.0856,53
-0.0931,0.475,-0.4795,-0.1504,-1.8138,0.8217,0.2747,-1.9765,8.7013,1.8354,1.667,1.2079,0.1169,9.6993,-0.3341,1.8208,0.9279,1.6288,0.6147,9.3773,1.5989,1.9061,0.05918,0,1698374129.096,54
-0.0875,0.4995,-0.479,-0.0878,-1.7691,0.7024,0.3801,-1.8602,8.7159,1.7401,1.5859,1.3691,0.2173,9.6196,-0.3193,1.8825,1.2372,1.311,0.5111,9.2799,1.5826,1.9426,0.243537,0,1698374129.1059,55
-0.082,0.5292,-0.4778,-0.0201,-1.7607,0.6872,0.5207,-1.8108,8.6089,1.6239,1.5017,1.4772,0.314,9.5269,-0.2763,1.9593,1.5788,1.071,0.4195,9.1682,1.5982,1.9726,0.404541,0,1698374129.1161,55
-0.0761,0.5533,-0.4755,0.0702,-1.7832,0.7164,0.6743,-1.6609,8.3114,1.5414,1.3646,1.476,0.3925,9.4426,-0.2217,2.0334,1.9294,0.9451,0.3544,9.0509,1.6091,1.9978,0.535755,0,1698374129.1261,56
-0.0699,0.5699,-0.4717,0.1491,-1.7129,0.6862,0.8268,-1.4983,8.1594,1.4926,1.2701,1.3762,0.4621,9.3785,-0.1617,2.0985,2.2537,0.9657,0.331,8.9371,1.6127,2.0499,0.639201,0,1698374129.1375,57
-0.0635,0.5859,-0.4667,0.246,-1.5398,0.6585,0.9546,-1.4278,8.1032,1.4485,1.2197,1.1922,0.5229,9.3155,-0.1015,2.1661,2.4468,0.9774,0.341,8.8445,1.6323,2.0864,0.719734,0,1698374129.1477,57
-0.0561,0.6208,-0.4606,0.3374,-1.2955,0.6481,1.0446,-1.41,8.1712,1.3565,1.1524,0.9598,0.5744,9.2643,-0.0654,2.2512,2.4289,0.7599,0.3675,8.7776,1.6481,2.0629,0.782307,0,1698374129.1567,58
-0.0483,0.6691,-0.4546,0.4069,-0.9429,0.5735,1.0837,-1.4044,8.4466,1.2442,1.1018,0.723,0.6246,9.248,-0.0611,2.343,2.2165,0.383,0.4171,8.7451,1.651,2.0452,0.830906,0,1698374129.1658,59
-0.0398,0.7206,-0.4491,0.4821,-0.5727,0.4738,1.0928,-1.4413,8.5283,1.1877,1.0293,0.4897,0.6636,9.2642,-0.0725,2.3935,1.8648,-0.1219,0.482,8.7317,1.6367,2.04,0.868554,0,1698374129.1762,60
-0.0306,0.7472,-0.4431,0.5345,-0.2162,0.3861,1.094,-1.4816,8.4463,1.1943,0.8989,0.2667,0.6871,9.3107,-0.0929,2.4083,1.486,-0.6471,0.5461,8.7431,1.5919,2.0194,0.895862,0,1698374129.1861,60
-0.0217,0.7673,-0.4374,0.5425,0.1425,0.284,1.0795,-1.5287,8.47,1.2187,0.7192,0.0577,0.696,9.3781,-0.1333,2.4068,1.1739,-0.9254,0.5958,8.8039,1.5445,1.9841,0.89238,0,1698374129.1971,61
-0.0132,0.7968,-0.4332,0.5047,0.4109,0.1867,1.0495,-1.6212,8.6208,1.2515,0.5208,-0.1515,0.6918,9.4502,-0.1882,2.3665,0.9647,-0.984,0.6285,8.8834,1.4949,1.9263,0.756682,0,1698374129.2066,62
-0.0059,0.7942,-0.4308,0.4436,0.5436,0.0694,1.0151,-1.7363,8.8557,1.2971,0.3428,-0.3677,0.6945,9.5429,-0.25,2.307,0.8269,-1.0039,0.6641,8.9749,1.4283,1.8592,0.495188,0,1698374129.2158,62
0.0006,0.7694,-0.429,0.3606,0.6815,-0.0592,0.9901,-1.861,9.0101,1.3092,0.1355,-0.574,0.6983,9.6435,-0.3037,2.2746,0.6798,-1.1344,0.7037,9.0804,1.3838,1.7878,0.214396,0,1698374129.2262,63
0.0065,0.7223,-0.4276,0.2947,0.8688,-0.2111,0.9792,-2.0223,9.0261,1.2566,-0.0757,-0.741,0.6893,9.7317,-0.3414,2.2689,0.5076,-1.3483,0.7566,9.1976,1.3773,1.7184,-0.045794,0,1698374129.2362,64
0.0115,0.6725,-0.4268,0.2403,0.9878,-0.416,0.9665,-2.1892,9.1366,1.1404,-0.2321,-0.9006,0.6696,9.8013,-0.3811,2.2525,0.3142,-1.5911,0.819,9.2978,1.3805,1.6539,-0.258549,0,1698374129.2462,65
0.0162,0.6606,-0.4266,0.1809,1.0377,-0.6271,0.9379,-2.2903,9.316,0.9606,-0.3332,-1.1361,0.6406,9.8616,-0.4135,2.1933,0.1853,-1.7772,0.87,9.3833,1.406,1.58,-0.424092,0,1698374129.2559,65
0.0212,0.6397,-0.4266,0.1429,1.0483,-0.809,0.8978,-2.3277,9.3337,0.7835,-0.3989,-1.4239,0.6053,9.9169,-0.4112,2.1189,0.1628,-1.816,0.9088,9.4815,1.4611,1.5004,-0.552675,0,1698374129.2665,66
0.026,0.5875,-0.4266,0.1127,1.0881,-0.9835,0.8777,-2.3206,9.3162,0.7117,-0.4883,-1.673,0.5711,9.969,-0.3901,2.0823,0.2015,-1.726,0.9347,9.5896,1.537,1.4163,-0.65255,0,1698374129.2759,67
0.0301,0.5373,-0.4266,0.0774,1.1829,-1.1966,0.8604,-2.3346,9.4343,0.7573,-0.6463,-1.8614,0.5402,10.0517,-0.3553,2.0771,0.0662,-1.6442,0.9352,9.733,1.596,1.3396,-0.730125,0,1698374129.2856,67
0.0336,0.488,-0.4263,0.0605,1.2411,-1.4226,0.7949,-2.3485,9.7693,0.8533,-0.85,-1.9941,0.4975,10.2145,-0.3323,2.0589,-0.0798,-1.6761,0.9296,9.9274,1.6367,1.2824,-0.79038,0,1698374129.2971,68
0.037,0.437,-0.4248,0.0953,1.26,-1.5598,0.6827,-2.2379,10.1391,0.9779,-1.0279,-2.127,0.4251,10.4661,-0.3481,2.0231,-0.1446,-1.8142,0.9346,10.1982,1.659,1.2179,-0.837182,0,1698374129.3071,69
0.0398,0.3845,-0.4218,0.1468,1.3829,-1.6706,0.5453,-2.006,10.4611,1.1976,-1.1532,-2.3231,0.3187,10.7398,-0.4069,1.9961,-0.4412,-1.987,0.9837,10.5306,1.6338,1.2365,-0.873535,0,1698374129.3173,70
0.0412,0.3048,-0.4175,0.2097,1.5618,-1.7985,0.3926,-1.8417,10.7238,1.4816,-1.2139,-2.6228,0.1686,11.0074,-0.5386,1.9946,-1.0099,-2.0319,1.0763,10.8396,1.5674,1.3544,-0.901771,0,1698374129.327,70
0.0413,0.2348,-0.4121,0.2912,1.6293,-1.8322,0.2126,-1.6622,10.8219,1.8045,-1.2228,-3.0193,-0.0076,11.2624,-0.731,2.0411,-1.6817,-1.8579,1.1781,11.1243,1.4593,1.4676,-0.923702,0,1698374129.3372,71
0.0412,0.1866,-0.4058,0.3677,1.7055,-1.8106,0.0012,-1.4325,10.8543,2.1657,-1.2347,-3.3604,-0.1393,11.4842,-0.9665,2.1223,-2.1992,-1.485,1.2606,11.4173,1.3234,1.5398,-0.940737,0,1698374129.3468,72
0.0411,0.1342,-0.3997,0.4089,1.8158,-1.7069,-0.2099,-1.2297,10.876,2.3896,-1.2721,-3.541,-0.1948,11.6466,-1.2218,2.2151,-2.5833,-1.0181,1.3076,11.6537,1.1529,1.6124,-0.953969,0,1698374129.356,72
0.0407,0.0872,-0.3951,0.3952,1.8018,-1.4773,-0.4173,-0.9795,10.844,2.4371,-1.3148,-3.5433,-0.1876,11.7048,-1.456,2.3045,-2.8237,-0.664,1.2862,11.7769,1.0515,1.6656,-0.964246,0,1698374129.3659,73
0.0393,0.0121,-0.3919,0.3406,1.8131,-1.2708,-0.5733,-0.7143,10.8327,2.4256,-1.3659,-3.3635,-0.1198,11.6434,-1.6354,2.3646,-2.9295,-0.6267,1.0821,11.7961,1.0817,1.6398,-0.972229,0,1698374129.3766,74
0.036,-0.0992,-0.3896,0.2997,1.7298,-1.1522,-0.6322,-0.5671,10.9076,2.3951,-1.4601,-3.0398,0.0232,11.5126,-1.7243,2.3661,-2.6359,-0.9113,0.6798,11.7277,1.0943,1.6094,-0.978429,0,1698374129.3858,74
0.0303,-0.2516,-0.3869,0.3145,1.6899,-1.129,-0.5902,-0.6083,11.1243,2.3235,-1.621,-2.652,0.2076,11.3589,-1.7348,2.3278,-1.8573,-1.3096,0.2089,11.6182,1.0351,1.6157,-0.983246,0,1698374129.3976,75
0.0212,-0.4482,-0.383,0.3488,1.8957,-1.2662,-0.4332,-0.9111,11.2496,2.3636,-1.7954,-2.3329,0.3465,11.2109,-1.6943,2.3054,-0.9167,-1.7119,-0.2234,11.4906,0.9565,1.5848,-0.986986,0,1698374129.4072,76
0.0095,-0.6115,-0.3775,0.3894,1.9883,-1.4894,-0.2047,-1.281,11.0117,2.508,-1.9403,-2.1311,0.3914,11.1143,-1.6287,2.3365,-0.0226,-2.1496,-0.5771,11.3319,0.8818,1.5081,-0.989892,0,1698374129.4173,77
-0.0048,-0.7808,-0.3693,0.4959,1.8395,-1.714,0.0367,-1.4718,10.7492,2.5964,-2.0545,-1.9266,0.358,11.0092,-1.536,2.4287,0.5611,-2.5842,-0.8134,11.1477,0.8166,1.4641,-0.992148,0,1698374129.4267,77
-0.0218,-0.9989,-0.3588,0.6578,1.6796,-2.0384,0.2498,-1.6545,10.6225,2.6873,-2.1756,-1.6272,0.2674,10.8021,-1.4143,2.5295,0.683,-2.944,-0.9416,10.8974,0.7547,1.4595,-0.993901,0,1698374129.4358,78
-0.0412,-1.2052,-0.3461,0.8206,1.5682,-2.4548,0.4076,-1.7547,10.3269,2.8129,-2.3788,-1.2045,0.0964,10.5908,-1.335,2.6132,0.4019,-3.1586,-0.9824,10.5614,0.6767,1.4579,-0.995263,0,1698374129.446,79
-0.0627,-1.3948,-0.3319,0.9304,1.3402,-2.8771,0.4773,-1.6406,10.0542,2.922,-2.5545,-0.8072,-0.1318,10.2668,-1.2977,2.7383,-0.1053,-3.1106,-0.9408,10.2178,0.5712,1.4411,-0.99632,0,1698374129.4565,79
-0.0859,-1.541,-0.3182,1.0054,1.1972,-3.281,0.4514,-1.4505,9.9678,2.9399,-2.8494,-0.5796,-0.3108,9.8864,-1.3564,2.6625,-0.6672,-2.7605,-0.8616,9.9277,0.4401,1.4355,-0.997142,0,1698374129.4662,80
-0.1099,-1.724,-0.3053,1.0728,1.0367,-3.6024,0.3597,-1.1712,9.787,2.9143,-3.2149,-0.4164,-0.4447,9.5991,-1.4862,2.439,-1.1999,-2.2381,-0.7711,9.6916,0.2821,1.4312,-0.99778,0,1698374129.4764,81
-0.1339,-1.9526,-0.2939,1.0889,0.6921,-3.8469,0.2075,-0.8229,9.7063,2.8585,-3.4331,-0.2965,-0.6195,9.3563,-1.6303,2.3336,-1.7833,-1.5468,-0.6599,9.5107,0.0343,1.4166,-0.998276,0,1698374129.4862,82
-0.1574,-2.1404,-0.2843,1.0368,0.4041,-4.0717,-0.0079,-0.6186,9.7494,2.8337,-3.5276,-0.3823,-0.7893,9.2416,-1.8481,2.2712,-2.4742,-1.159,-0.5428,9.4313,-0.2891,1.3663,-0.998661,0,1698374129.4962,82
-0.1799,-2.2195,-0.2763,0.9552,0.332,-4.2498,-0.2493,-0.4634,9.6698,2.8451,-3.6232,-0.5436,-0.9263,9.1903,-2.0801,2.1487,-3.2025,-1.2745,-0.4494,9.4234,-0.5694,1.3376,-0.99896,0,1698374129.506,83
-0.2019,-2.2165,-0.2688,0.887,0.2488,-4.3463,-0.4573,-0.2543,9.6416,2.739,-3.7707,-0.7447,-1.089,9.1707,-2.2501,2.1001,-3.9387,-1.3412,-0.3376,9.4347,-0.8195,1.4225,-0.999192,0,1698374129.5174,84
-0.2239,-2.1735,-0.2622,0.8277,-0.0281,-4.3207,-0.6001,0.0526,9.6799,2.6046,-3.8794,-1.2034,-1.2528,9.233,-2.3744,2.0987,-4.7108,-1.3325,-0.1843,9.4854,-1.0362,1.5018,-0.999372,0,1698374129.5272,84
-0.2449,-2.1257,-0.2563,0.8002,-0.3505,-4.1688,-0.6241,0.4674,9.6402,2.6511,-3.9978,-1.719,-1.346,9.3956,-2.5054,1.9848,-5.4332,-1.2584,0.003,9.6009,-1.1901,1.5522,-0.999513,0,1698374129.5375,85
-0.2646,-2.0785,-0.2498,0.8038,-0.5114,-3.9783,-0.5132,0.8533,9.624,2.8498,-3.9611,-2.0156,-1.3579,9.591,-2.6128,1.9655,-5.996,-1.1037,0.2158,9.7486,-1.2851,1.5667,-0.999621,0,1698374129.5473,86
-0.2831,-1.9986,-0.2432,0.8048,-0.466,-3.7452,-0.283,1.1246,9.6071,2.9918,-3.7929,-2.1036,-1.3023,9.8014,-2.6681,2.0006,-6.4229,-0.8881,0.4202,9.8952,-1.3083,1.5382,-0.999706,0,1698374129.5565,87
-0.2999,-1.8933,-0.2367,0.8089,-0.3787,-3.4235,0.073,1.245,9.4358,3.0331,-3.6119,-1.9146,-1.1748,9.9955,-2.7026,1.9896,-6.7537,-0.6823,0.5526,10.0352,-1.2659,1.5267,-0.999772,0,1698374129.5662,87
-0.3153,-1.7409,-0.2294,0.8067,-0.259,-3.0551,0.4808,1.3035,9.1838,3.085,-3.4382,-1.3043,-0.9599,10.1001,-2.724,1.9658,-6.9518,-0.5668,0.554,10.1331,-1.163,1.5063,-0.999823,0,1698374129.5774,88
-0.3296,-1.605,-0.2217,0.7917,-0.131,-2.7111,0.8674,1.3097,9.0702,3.0975,-3.3961,-0.4927,-0.6651,10.0866,-2.7131,1.8869,-7.0239,-0.5103,0.4571,10.1649,-1.0432,1.4864,-0.999862,0,1698374129.5869,89
-0.3421,-1.4864,-0.2142,0.8009,0.0511,-2.42,1.2265,1.1354,8.9623,2.9945,-3.4733,0.2016,-0.3535,9.9626,-2.6632,1.7126,-6.5668,-0.1647,0.3418,10.1736,-0.9085,1.0412,-0.999893,0,1698374129.5968,89
-0.3525,-1.3717,-0.2069,0.7807,0.2811,-2.1752,1.5114,0.8918,8.8473,2.8535,-3.477,0.7928,-0.0799,9.8118,-2.5811,1.5229,-6.0252,-0.0608,0.1994,10.1016,-0.7635,0.569,-0.999917,0,1698374129.6056,90
-0.3621,-1.2777,-0.1996,0.7609,0.4146,-1.9501,1.7113,0.7162,8.8296,2.6584,-3.3121,1.4046,0.1266,9.6358,-2.4704,1.4058,-5.3906,0.3233,-0.0126,9.9956,-0.6498,0.6502,-0.999935,0,1698374129.616,91
-0.3708,-1.1979,-0.1916,0.7753,0.4944,-1.7607,1.8257,0.5208,8.8009,2.4355,-3.1618,1.9991,0.2896,9.4542,-2.3693,1.2713,-4.2305,1.6954,-0.2395,9.9419,-0.5936,0.834,-0.99995,0,1698374129.6262,91
-0.379,-1.1145,-0.1832,0.7803,0.5675,-1.6298,1.8516,0.3799,8.8259,2.2154,-3.1047,2.5171,0.4188,9.303,-2.2909,1.1253,-3.1427,2.9333,-0.4685,9.8924,-0.5849,0.9699,-0.999961,0,1698374129.6376,92
-0.3876,-1.0636,-0.1746,0.7694,0.6328,-1.5861,1.812,0.3349,8.7967,2.1454,-3.1183,2.9254,0.4765,9.1867,-2.2233,1.0144,-2.4009,3.3579,-0.6967,9.8105,-0.6086,1.0064,-0.99997,0,1698374129.6468,93
-0.3958,-1.041,-0.1662,0.7914,0.6452,-1.6008,1.7105,0.3368,8.9001,2.0892,-3.2158,3.2536,0.4829,9.0877,-2.1977,0.9408,-2.0088,3.2634,-0.8348,9.6431,-0.7249,0.8745,-0.999975,0,1698374129.657,94
-0.4037,-1.0132,-0.1577,0.851,0.55,-1.613,1.5669,0.3982,9.1141,1.9045,-3.3631,3.5009,0.4615,8.9681,-2.2364,0.9178,-1.9736,2.6232,-0.8449,9.3955,-0.82,0.7856,-0.999976,0,1698374129.6665,94
-0.4113,-0.9712,-0.1497,0.8615,0.4462,-1.6548,1.3778,0.4956,9.1804,1.7887,-3.561,3.5813,0.4023,8.8667,-2.3216,0.8931,-2.2087,1.4724,-0.8433,9.2772,-0.8803,0.8748,-0.999975,0,1698374129.6762,95
-0.4184,-0.9189,-0.1418,0.8605,0.3017,-1.707,1.2028,0.5771,9.2971,1.6852,-3.7318,3.4631,0.3069,8.8007,-2.4291,0.8636,-2.4083,0.4038,-0.9154,9.2941,-0.9874,0.9548,-0.999977,0,1698374129.6861,96
-0.4249,-0.8407,-0.1331,0.8548,0.1213,-1.7304,1.0285,0.6415,9.3783,1.5823,-3.7434,3.1992,0.1782,8.7649,-2.5348,0.8491,-2.3895,-0.4041,-1.0063,9.3032,-1.0753,0.9645,-0.999982,0,1698374129.6968,96
-0.4298,-0.7424,-0.1245,0.826,-0.0538,-1.7171,0.8403,0.7559,9.4591,1.4944,-3.6366,2.874,0.0323,8.7634,-2.638,0.8284,-2.167,-0.9693,-1.0889,9.2916,-1.1186,0.9114,-0.999986,0,1698374129.707,97
-0.4336,-0.6508,-0.1164,0.8156,-0.2154,-1.6726,0.7052,0.8766,9.528,1.424,-3.465,2.5397,-0.1109,8.7763,-2.7316,0.8153,-1.8817,-1.4919,-1.1931,9.2844,-1.1496,0.8354,-0.999989,0,1698374129.7166,98
-0.4368,-0.5515,-0.1086,0.8358,-0.352,-1.593,0.5807,1.0078,9.6523,1.3255,-3.1987,2.1785,-0.2707,8.8024,-2.7978,0.8223,-1.5194,-2.0316,-1.2987,9.2868,-1.1961,0.7173,-0.999992,0,1698374129.7261,99
-0.4386,-0.4427,-0.1004,0.836,-0.5432,-1.4322,0.4652,1.2013,9.7633,1.2185,-2.8939,1.8273,-0.44,8.8395,-2.8605,0.83,-1.1094,-2.1875,-1.3399,9.2647,-1.2323,0.6285,-0.99998,0,1698374129.7371,99
-0.4388,-0.3378,-0.092,0.8071,-0.7182,-1.2443,0.3738,1.3696,9.7846,1.1578,-2.5694,1.5153,-0.6047,8.8571,-2.9124,0.8315,-0.7049,-1.4385,-1.2798,9.2817,-1.2718,0.6865,-0.994224,0,1698374129.747,0
-0.4386,-0.2604,-0.0842,0.7805,-0.8823,-1.0566,0.2935,1.4692,9.7968,1.142,-2.2406,1.2158,-0.7702,8.8566,-2.9543,0.8332,-0.3736,-0.2329,-1.159,9.2904,-1.3028,0.727,-0.986515,0,1698374129.7567,1
-0.4386,-0.191,-0.0769,0.7756,-1.0447,-0.8707,0.1961,1.529,9.7361,1.2507,-1.9026,0.9492,-0.9345,8.8551,-3.0029,0.8466,-0.2339,0.6677,-1.0396,9.2637,-1.3135,0.6858,-0.985978,0,1698374129.766,2
-0.4385,-0.1354,-0.0698,0.7878,-1.2364,-0.6693,0.0438,1.6372,9.718,1.2828,-1.508,0.7446,-1.1089,8.857,-3.039,0.8567,-0.2285,1.0136,-0.9485,9.2376,-1.3168,0.6275,-0.988711,0,1698374129.7777,2
-0.4375,-0.0694,-0.0627,0.7877,-1.4083,-0.633,-0.1393,1.5149,9.9723,1.0183,-1.0131,0.5908,-1.293,8.8602,-3.065,0.8589,-0.2149,1.1041,-0.8881,9.2273,-1.3153,0.628,-0.991033,0,1698374129.7867,3
-0.4351,0.0168,-0.0565,0.7569,-1.0144,-0.7258,-0.3207,1.1042,9.7601,0.8906,-0.4532,0.4577,-1.4607,8.8331,-3.0854,0.8449,-0.1123,1.2631,-0.8513,9.2123,-1.3058,0.6973,-0.992757,0,1698374129.7957,4
-0.4314,0.1084,-0.0507,0.7005,-0.6905,-0.4587,-0.5085,0.9908,9.004,0.882,0.0627,0.3543,-1.5714,8.7816,-3.0876,0.8284,0.0875,1.488,-0.8407,9.1937,-1.2755,0.7841,-0.993784,0,1698374129.8077,5
-0.4251,0.2543,-0.0443,0.6893,-0.7874,-0.1055,-0.7233,1.0831,8.4938,1.0061,0.5469,0.2681,-1.6037,8.7381,-3.0987,0.8591,0.3663,1.5732,-0.8767,9.1827,-1.2274,0.8525,-0.993113,0,1698374129.8166,6
-0.4173,0.418,-0.0373,0.7377,-0.6599,0.1654,-0.9141,1.1914,8.0926,1.2053,0.9886,0.1781,-1.552,8.6765,-3.0795,0.8974,0.668,1.4442,-0.9524,9.1894,-1.1724,0.9185,-0.978222,0,1698374129.8269,6
-0.4087,0.5331,-0.029,0.7689,-0.647,0.6042,-1.0631,1.4479,8.2993,1.0158,1.3785,0.0817,-1.4412,8.5995,-3.0109,0.8839,0.9382,1.2281,-1.0402,9.2216,-1.1181,0.9716,-0.795975,0,1698374129.8372,7
-0.3996,0.5825,-0.0195,0.7785,-0.5014,1.0397,-1.1286,1.6469,8.7709,0.8518,1.7453,-0.0365,-1.3355,8.5793,-2.9386,0.8466,1.1915,1.0841,-1.1382,9.267,-1.0976,0.9976,-0.668803,0,1698374129.847,8
-0.3916,0.588,-0.0098,0.8077,-0.1097,1.3796,-1.1138,1.7437,9.0199,0.8655,2.1078,-0.2307,-1.2858,8.6405,-2.8627,0.8255,1.4547,1.0294,-1.2339,9.3252,-1.1186,1.0031,-0.737365,0,1698374129.8566,9
-0.3852,0.5587,-0.0006,0.8213,0.538,1.6589,-1.0538,1.8072,9.1895,0.9502,2.4975,-0.482,-1.3017,8.7635,-2.7876,0.8381,1.6626,0.9434,-1.3125,9.3934,-1.1258,0.9932,-0.595881,0,1698374129.8661,9
-0.3806,0.5121,0.0084,0.8321,1.1596,1.9262,-0.9731,1.8877,9.2959,1.0446,2.888,-0.7991,-1.3917,8.9395,-2.7013,0.91,1.7124,0.7437,-1.3821,9.4939,-1.1079,0.9864,-0.268556,0,1698374129.8773,10
-0.3786,0.4431,0.017,0.838,1.3978,2.1534,-0.8908,1.9222,9.3849,1.0356,3.1837,-1.1664,-1.5374,9.1558,-2.6172,0.9824,1.6906,0.5093,-1.4575,9.607,-1.0718,0.9813,0.012756,0,1698374129.8872,11
-0.3785,0.338,0.0241,0.8023,1.547,2.3878,-0.8004,1.8672,9.4546,0.9669,3.3656,-1.5071,-1.682,9.3631,-2.5555,1.0282,1.7282,0.4074,-1.5271,9.7213,-1.0037,1.0017,0.231667,0,1698374129.8971,12
-0.3788,0.2577,0.0301,0.7419,1.6484,2.863,-0.7388,1.8518,9.5803,0.8784,3.4532,-1.7888,-1.7765,9.5292,-2.4994,1.0755,1.8068,0.4339,-1.576,9.8053,-0.9037,1.0303,0.402723,0,1698374129.9073,13
-0.3788,0.1962,0.0353,0.685,1.7238,3.2475,-0.6883,1.8293,9.7499,0.7109,3.3986,-1.9905,-1.7996,9.6574,-2.4339,1.0853,1.8517,0.4195,-1.6175,9.8366,-0.7985,1.0545,0.53603,0,1698374129.9165,13
-0.3788,0.1352,0.0396,0.6329,1.7593,3.3961,-0.6483,1.7654,9.9506,0.5238,3.1431,-2.1736,-1.7554,9.781,-2.3677,1.0359,1.8431,0.2541,-1.6403,9.8726,-0.7013,1.0933,0.639619,0,1698374129.926,14
-0.3788,0.092,0.0424,0.5513,1.763,3.5977,-0.6172,1.6578,10.0955,0.5036,2.8151,-2.413,-1.6912,9.9741,-2.3067,0.9185,1.7981,-0.038,-1.5992,9.9848,-0.6274,1.1424,0.720081,0,1698374129.9372,15
-0.3787,0.0581,0.0437,0.441,1.7625,3.7755,-0.5632,1.4381,10.2957,0.6915,2.6907,-2.7199,-1.6805,10.2788,-2.2631,0.7658,1.7248,-0.397,-1.4693,10.242,-0.5928,1.2187,0.782577,0,1698374129.9466,16
-0.3785,0.0407,0.0437,0.3254,1.7042,3.9409,-0.4514,1.1761,10.5143,1.0455,2.9699,-3.1398,-1.7421,10.7181,-2.2642,0.6472,1.6883,-0.8019,-1.2619,10.6264,-0.5511,1.3395,0.831117,0,1698374129.9572,17
-0.3777,0.0573,0.0434,0.2223,1.6128,4.0234,-0.2811,0.875,10.9834,1.5091,3.6742,-3.7131,-1.8726,11.3495,-2.283,0.6577,1.8926,-1.3039,-0.9848,11.192,-0.4498,1.4456,0.868817,0,1698374129.9671,17
-0.3755,0.1071,0.0431,0.1356,1.5385,4.0056,-0.0354,0.3023,11.6824,2.1006,4.5213,-4.357,-2.0805,12.2254,-2.2997,0.7723,2.4399,-1.9486,-0.6836,11.9277,-0.3281,1.5919,0.898103,0,1698374129.9767,18
-0.3719,0.1903,0.0413,-0.0021,1.3367,4.0446,0.3795,-0.3375,12.0132,2.8477,5.4723,-4.9133,-2.3281,13.1414,-2.2542,1.0414,3.0405,-2.7187,-0.3832,12.7333,-0.116,1.8472,0.920853,0,1698374129.9856,19
-0.3677,0.2628,0.0349,-0.2047,0.9976,4.0494,0.793,-0.7873,12.6541,3.2174,6.361,-5.1461,-2.4147,13.8009,-2.1945,1.4706,3.092,-2.8175,-0.114,13.3138,0.222,2.1653,0.938524,0,1698374129.9982,20
-0.3644,0.2525,0.0228,-0.4164,0.9524,3.8954,1.115,-1.23,13.3265,3.1642,6.4326,-4.7925,-2.107,13.987,-2.0404,1.8575,2.5943,-1.8528,0.0644,13.3743,0.5585,2.4096,0.95225,0,1698374130.0074,20
-0.3632,0.1898,0.0082,-0.6882,1.0835,3.7631,1.4026,-1.4268,13.1541,3.092,5.3506,-3.5336,-1.4368,13.8498,-1.7724,1.9528,2.0449,-0.8487,0.0691,13.1382,0.906,2.5363,0.962911,0,1698374130.0179,21
-0.3631,0.1545,-0.009,-0.9723,1.0838,3.7318,1.5706,-1.2545,12.7444,2.9829,3.9741,-2.1434,-0.6086,13.4453,-1.4292,1.8891,1.6694,-0.5614,-0.1146,12.7618,1.248,2.5997,0.971192,0,1698374130.0277,22
-0.3617,0.1978,-0.0279,-1.2375,1.1046,3.7169,1.6261,-0.8889,12.1589,2.9867,2.8385,-0.4175,0.3449,12.9873,-1.0999,1.9692,1.7765,-0.9219,-0.375,12.2846,1.4421,2.5458,0.977624,0,1698374130.0372,23
-0.3573,0.2999,-0.0471,-1.448,1.0849,3.644,1.607,-0.5977,11.5149,3.2195,2.2359,1.3593,1.2823,12.4979,-1.0486,1.88,2.4767,-1.5966,-0.6573,11.7802,1.4693,2.4035,0.98262,0,1698374130.0472,24
-0.3484,0.4772,-0.0688,-1.6343,0.952,3.7459,1.4942,-0.3752,10.9615,3.3014,2.1727,2.6021,1.9048,11.9013,-1.0568,1.5345,3.565,-2.2032,-0.9107,11.2195,1.3555,2.2277,0.9865,0,1698374130.0573,24
-0.3345,0.7381,-0.0922,-1.817,0.6929,4.0619,1.2753,-0.1281,10.6067,3.0868,2.0878,3.8863,2.3517,11.4066,-1.134,1.4039,3.8318,-3.7286,-1.2132,10.713,1.1006,2.3357,0.989514,0,1698374130.0676,25
-0.3174,0.9553,-0.1164,-1.9006,0.5257,4.4131,1.0226,0.1239,10.3547,2.9786,1.9494,4.4039,2.7064,10.9018,-1.1611,1.5237,3.82,-4.892,-1.2095,10.2623,0.6249,2.2605,0.991856,0,1698374130.0769,26
-0.2998,1.0742,-0.141,-1.9741,0.4836,4.6815,0.7855,0.2775,10.0723,3.0996,1.6459,3.8259,2.7076,10.436,-0.885,1.6165,5.0064,-3.7599,-1.0089,9.7412,0.5053,1.805,0.993674,0,1698374130.0865,27
-0.2832,1.1624,-0.1654,-2.0822,0.5054,4.7461,0.6149,0.208,10.0014,3.3173,1.5883,2.5479,2.4076,10.0378,-0.6239,1.695,7.0588,-0.7936,-0.8668,9.3399,0.677,1.8072,0.995086,0,1698374130.0976,28
-0.2673,1.2081,-0.1897,-2.159,0.4601,4.8089,0.5523,0.0095,10.0606,3.302,2.5176,1.0728,2.0818,9.8108,-0.4322,1.8022,8.9495,2.4402,-0.5749,9.1383,0.7131,2.0088,0.996183,0,1698374130.1065,28
-0.2542,1.1871,-0.214,-2.2551,0.1881,4.8996,0.5241,-0.3513,10.375,2.9269,3.7464,-0.3627,1.798,9.8182,-0.1875,2.1172,9.6494,4.2737,-0.2092,9.0491,0.9154,2.0906,0.997036,0,1698374130.1166,29
-0.2441,1.1317,-0.2365,-2.312,-0.1297,4.9077,0.4818,-0.8144,10.6096,2.6348,4.6753,-1.5407,1.5282,9.9356,0.038,2.488,9.138,4.6027,0.2623,9.0915,1.165,2.2097,0.997697,0,1698374130.1257,30
-0.2359,1.0375,-0.2592,-2.336,-0.3349,4.7982,0.4071,-1.3646,10.4349,2.5973,5.4428,-2.2733,1.2308,10.038,0.2413,2.7469,7.7744,3.8144,0.7606,9.2341,1.3816,2.3447,0.998212,0,1698374130.1372,31
-0.2292,0.9352,-0.2822,-2.3652,-0.3357,4.5341,0.2887,-1.9427,10.1553,2.569,5.8993,-2.6711,0.9052,10.0673,0.3989,2.9675,6.1145,2.8458,1.226,9.4231,1.5477,2.4666,0.998611,0,1698374130.1467,31
-0.2231,0.8695,-0.3029,-2.3333,-0.1071,4.093,0.0995,-2.558,9.4013,2.6706,6.0313,-2.9255,0.6506,10.019,0.4564,3.0298,4.5926,2.3824,1.625,9.5713,1.6484,2.5403,0.998921,0,1698374130.1565,32
-0.2172,0.8241,-0.3226,-2.2969,-0.0914,3.7171,-0.2034,-2.948,8.6666,2.6687,5.8894,-2.7729,0.4947,9.9325,0.4626,2.967,3.3039,2.25,1.8659,9.6238,1.7167,2.551,0.999162,0,1698374130.1672,33
-0.2105,0.8014,-0.3408,-2.2033,-0.3076,3.3442,-0.604,-3.0727,8.6793,2.4083,5.5081,-2.08,0.4323,9.8221,0.4393,2.868,2.2041,1.9784,1.8724,9.6167,1.7634,2.4633,0.999349,0,1698374130.1774,34
-0.2038,0.7777,-0.357,-2.0236,-0.4083,2.8423,-1.0251,-3.2168,8.8087,2.1822,4.8958,-1.2725,0.4324,9.6903,0.4094,2.7852,1.3465,1.6507,1.6908,9.58,1.7916,2.3329,0.999494,0,1698374130.1868,35
-0.1978,0.7381,-0.3709,-1.856,-0.4549,2.3818,-1.4041,-3.1633,8.8344,1.9788,4.1594,-0.4382,0.4598,9.6011,0.3737,2.6906,0.8286,1.3408,1.4279,9.5125,1.8068,2.2042,0.999592,0,1698374130.1973,35
-0.1922,0.7092,-0.3827,-1.6928,-0.348,1.869,-1.7207,-3.0127,8.8517,1.8874,3.4281,0.4152,0.5169,9.5609,0.3205,2.5825,0.5269,0.8615,1.1461,9.422,1.8258,2.0696,0.999358,0,1698374130.2064,36
-0.1874,0.6635,-0.3926,-1.5153,-0.1141,1.3284,-1.9478,-2.9115,8.7213,1.9433,2.7706,1.1411,0.5825,9.5409,0.2437,2.4739,0.2244,-0.023,0.9119,9.3309,1.8136,1.9064,0.989999,0,1698374130.2167,37
-0.1835,0.5892,-0.4008,-1.3662,0.0531,0.8769,-2.1021,-2.7163,8.5943,2.0121,2.1551,1.618,0.6266,9.531,0.1517,2.3802,-0.1444,-1.2724,0.7522,9.2818,1.7512,1.7451,0.816539,0,1698374130.2261,38
-0.1797,0.5372,-0.4087,-1.2245,0.1029,0.5339,-2.2109,-2.4143,8.5572,2.0621,1.6029,1.8513,0.6388,9.5318,0.0791,2.3312,-0.5296,-2.6315,0.6835,9.26,1.6809,1.6331,0.467995,0,1698374130.2366,39
-0.1753,0.5236,-0.4165,-1.1072,0.2055,0.2283,-2.274,-2.1532,8.5075,2.1362,1.2029,1.8799,0.6218,9.5336,0.0174,2.3017,-0.8298,-3.6002,0.7307,9.2626,1.6195,1.551,0.140503,0,1698374130.2471,39
-0.1703,0.5111,-0.4238,-1.0188,0.2996,0.0071,-2.2839,-1.9339,8.5494,2.1866,0.7576,1.724,0.572,9.5224,-0.0631,2.2657,-0.9793,-3.8345,0.8619,9.2672,1.5994,1.4947,-0.114137,0,1698374130.2566,40
-0.1654,0.4763,-0.4305,-0.9648,0.2551,-0.0701,-2.2285,-1.6793,8.6664,2.1602,0.5719,1.4521,0.4864,9.5446,-0.1406,2.2888,-1.0393,-3.368,1.0218,9.2553,1.6268,1.4598,-0.311924,0,1698374130.267,41
-0.1605,0.4697,-0.4368,-0.9196,0.1737,-0.0908,-2.1309,-1.4733,8.8494,2.1122,0.8504,1.131,0.3645,9.5863,-0.1711,2.3813,-1.143,-2.4585,1.1775,9.2354,1.6732,1.4447,-0.465551,0,1698374130.2774,42
-0.1549,0.5031,-0.4429,-0.8403,0.027,-0.0473,-2.0023,-1.2793,9.1263,2.0166,1.1544,0.9318,0.2468,9.5951,-0.1638,2.4788,-1.2968,-1.5467,1.3028,9.2109,1.737,1.3918,-0.584878,0,1698374130.2868,43
-0.1493,0.5097,-0.4482,-0.7469,-0.133,0.0368,-1.8163,-1.176,9.2265,1.9673,1.3275,0.9501,0.1503,9.5838,-0.1109,2.5197,-1.4171,-0.7686,1.3915,9.1993,1.8179,1.3243,-0.677562,0,1698374130.2969,43
-0.1439,0.5242,-0.453,-0.6792,-0.276,0.1609,-1.5969,-1.0965,9.1423,1.9551,1.3308,1.1544,0.0839,9.5573,-0.0235,2.5139,-1.5131,-0.0808,1.4587,9.209,1.8869,1.2908,-0.749553,0,1698374130.3066,44
-0.1381,0.5436,-0.4581,-0.6468,-0.4945,0.3348,-1.377,-1.0051,9.1627,1.9117,1.2421,1.4238,0.0527,9.5462,0.0516,2.4447,-1.6482,0.5677,1.5058,9.2093,1.9479,1.2977,-0.80547,0,1698374130.3173,45
-0.1324,0.5307,-0.4628,-0.6039,-0.8099,0.5194,-1.1534,-1.01,9.2184,1.8687,1.1638,1.6254,0.0302,9.5738,0.0776,2.3139,-1.8272,1.2734,1.6012,9.2133,1.937,1.342,-0.848899,0,1698374130.3271,46
-0.1271,0.5137,-0.4661,-0.5458,-1.1154,0.6729,-0.897,-1.1336,9.2675,1.812,1.1747,1.7846,0.0051,9.6143,0.0745,2.1926,-1.9322,1.9348,1.6881,9.2351,1.8872,1.314,-0.882535,0,1698374130.3363,46
-0.1222,0.5178,-0.4686,-0.4881,-1.2547,0.6959,-0.6902,-1.4131,9.5767,1.7236,1.3347,1.9346,-0.0127,9.6572,0.0515,2.1082,-1.8425,2.5398,1.6789,9.2523,1.8658,1.2692,-0.908488,0,1698374130.347,47
-0.1169,0.5392,-0.4706,-0.421,-1.2496,0.6924,-0.5203,-1.7329,9.5132,1.6351,1.6159,2.0793,-0.0189,9.6657,0.0096,2.0542,-1.5802,3.2099,1.6223,9.2611,1.8466,1.2651,-0.927587,0,1698374130.3568,48
-0.111,0.5504,-0.472,-0.3603,-1.3495,0.6778,-0.3371,-1.9928,8.8927,1.7249,1.8155,2.0817,-0.0731,9.6255,-0.0047,1.9564,-1.2597,3.8233,1.5323,9.2562,1.833,1.2756,-0.938333,0,1698374130.3669,49
-0.1049,0.5605,-0.473,-0.2996,-1.5806,0.6418,-0.1607,-2.1314,8.5976,1.8345,2.1154,1.9771,-0.1757,9.5809,0.0333,1.8943,-0.9571,4.2572,1.4326,9.2521,1.8261,1.3155,-0.930587,0,1698374130.3767,50
-0.0985,0.5912,-0.4735,-0.2211,-1.7438,0.5865,-0.0527,-2.1735,8.5777,1.782,2.2393,1.9171,-0.212,9.5843,0.0545,1.8685,-0.7502,4.4101,1.3296,9.2359,1.8334,1.3746,-0.887821,0,1698374130.3867,50
-0.0917,0.6174,-0.4734,-0.1552,-2.0189,0.5862,0.0661,-2.1955,8.7209,1.6615,1.8259,1.6856,-0.2001,9.5625,0.0873,1.8555,-0.6159,4.2391,1.1891,9.2115,1.8451,1.4296,-0.835479,0,1698374130.3976,51
-0.0846,0.6301,-0.4732,-0.0997,-2.2309,0.5407,0.2496,-2.1442,9.0244,1.3712,1.3063,1.1453,-0.2164,9.4759,0.1583,1.8148,-0.4434,3.8592,1.0083,9.1754,1.8837,1.4787,-0.806637,0,1698374130.4071,52
-0.0773,0.6463,-0.4721,-0.0299,-2.1816,0.3222,0.4262,-2.0554,8.9931,1.0685,0.8532,0.4197,-0.2342,9.3669,0.1879,1.717,-0.2088,3.3425,0.7989,9.1167,1.9372,1.5535,-0.814632,0,1698374130.4185,53
-0.0693,0.6704,-0.4689,0.0865,-2.1561,0.0912,0.6708,-2.0519,8.5684,0.9737,0.3684,-0.2564,-0.2088,9.2668,0.2035,1.6728,0.1225,2.7503,0.5826,9.0237,1.9506,1.6201,-0.849133,0,1698374130.4278,54
-0.0608,0.7259,-0.4629,0.2637,-2.1491,-0.0602,0.9502,-2.0105,8.0295,0.9407,-0.1846,-0.6,-0.1116,9.1975,0.2496,1.7665,0.4838,2.0688,0.3771,8.8893,1.9384,1.6515,-0.880743,0,1698374130.4379,54
-0.0522,0.7977,-0.4547,0.4519,-1.9988,-0.2033,1.1826,-1.8673,7.7293,0.8934,-0.5979,-0.6768,-0.0232,9.1082,0.3396,1.9037,0.7371,1.2923,0.1859,8.7442,1.9272,1.661,-0.90476,0,1698374130.4478,55
-0.0424,0.8826,-0.4448,0.6225,-1.7968,-0.3673,1.3494,-1.6784,7.806,0.8003,-0.936,-0.5772,0.0684,9.022,0.3638,1.9272,0.9058,0.4497,0.0255,8.6102,1.8948,1.6368,-0.924246,0,1698374130.4585,56
-0.0309,0.9854,-0.4341,0.7356,-1.4925,-0.5143,1.4543,-1.5223,7.9834,0.7662,-1.2736,-0.3762,0.1984,8.9876,0.3476,1.9219,1.0317,-0.411,-0.0881,8.5023,1.8399,1.5822,-0.94019,0,1698374130.4678,57
-0.0189,1.0646,-0.423,0.8223,-1.1437,-0.6788,1.5025,-1.3992,8.1382,0.8594,-1.4498,-0.2832,0.2984,9.0098,0.3198,1.8758,1.0392,-1.1656,-0.1328,8.4538,1.7596,1.5229,-0.95283,0,1698374130.478,57
-0.0069,1.1171,-0.4123,0.8985,-0.7995,-0.8772,1.5051,-1.3554,8.4136,1.0275,-1.4903,-0.3132,0.3677,9.111,0.2517,1.7892,0.8387,-1.7168,-0.0678,8.4875,1.6387,1.4828,-0.963287,0,1698374130.4878,58
0.0046,1.1031,-0.4026,0.915,-0.3258,-1.1141,1.4823,-1.4534,8.4532,1.2934,-1.4613,-0.4012,0.4172,9.266,0.1603,1.7513,0.4027,-1.9677,0.1011,8.589,1.4941,1.4623,-0.971484,0,1698374130.4975,59
0.0148,1.0481,-0.3952,0.8532,0.0506,-1.3167,1.4152,-1.5362,8.6133,1.4685,-1.3927,-0.4654,0.4471,9.4305,0.0233,1.7928,-0.1976,-1.9094,0.332,8.7499,1.3552,1.4491,-0.977851,0,1698374130.5066,60
0.0235,1.0058,-0.3903,0.7525,0.3182,-1.5049,1.2881,-1.669,9.0217,1.4354,-1.3735,-0.487,0.4601,9.6014,-0.1304,1.842,-0.8019,-1.6094,0.5821,8.9436,1.2436,1.4465,-0.982796,0,1698374130.5171,61
0.0308,0.9604,-0.387,0.643,0.3957,-1.6067,1.1331,-1.7892,9.3623,1.2635,-1.4907,-0.5423,0.466,9.7616,-0.2758,1.8485,-1.2816,-1.2596,0.7823,9.132,1.1481,1.444,-0.986637,0,1698374130.5269,61
0.0362,0.8771,-0.3859,0.5086,0.3349,-1.6567,0.9753,-1.7497,9.5191,1.1185,-1.6857,-0.6593,0.4705,9.8692,-0.3967,1.8244,-1.6124,-0.9555,0.9063,9.3011,1.0841,1.4549,-0.989621,0,1698374130.5376,62
0.0401,0.7514,-0.3868,0.358,0.303,-1.7093,0.8118,-1.4858,9.5473,0.9575,-1.8449,-0.8294,0.4843,9.9351,-0.4863,1.7664,-1.7355,-0.6725,0.9626,9.4644,1.0627,1.4861,-0.991938,0,1698374130.5464,63
0.0425,0.6357,-0.3885,0.2091,0.5126,-1.9103,0.6694,-1.4015,9.5492,0.8188,-1.9045,-0.9931,0.5205,9.977,-0.5356,1.7272,-1.5857,-0.4475,0.9466,9.5911,1.0731,1.5229,-0.993738,0,1698374130.5568,64
0.0437,0.5249,-0.3911,0.0961,0.7776,-2.1457,0.5418,-1.5013,9.3812,0.7038,-1.8734,-1.1373,0.5785,9.9745,-0.5544,1.7206,-1.1924,-0.2736,0.8575,9.6817,1.1226,1.5046,-0.995136,0,1698374130.5663,65
0.0443,0.4119,-0.3943,0.014,0.848,-2.3047,0.3898,-1.5363,9.5463,0.4333,-1.8943,-1.2816,0.6534,9.9666,-0.5455,1.6847,-0.7037,-0.1743,0.7184,9.7582,1.2132,1.4475,-0.996222,0,1698374130.5775,65
0.0444,0.3174,-0.3974,-0.0413,0.9137,-2.4904,0.2343,-1.704,9.7697,0.2556,-2.0606,-1.4424,0.7269,10.0194,-0.4891,1.6154,-0.2346,-0.248,0.5593,9.8553,1.2971,1.3846,-0.997066,0,1698374130.5867,66
0.0444,0.2459,-0.3996,-0.0614,0.9699,-2.6457,0.1075,-1.8819,9.77,0.3212,-2.3098,-1.5817,0.7729,10.167,-0.398,1.545,0.2337,-0.5166,0.4177,10.0425,1.338,1.2941,-0.997721,0,1698374130.5969,67
0.0444,0.1806,-0.4003,-0.0383,1.0604,-2.7561,0.0057,-1.8966,9.8379,0.5023,-2.5299,-1.6183,0.7754,10.4361,-0.335,1.5063,0.5446,-0.8966,0.3317,10.3218,1.3396,1.2559,-0.99823,0,1698374130.6068,68
0.0442,0.1248,-0.3992,0.0149,1.2338,-2.8009,-0.1246,-1.8225,10.1087,0.791,-2.6616,-1.6135,0.7219,10.7694,-0.351,1.522,0.4861,-1.2598,0.3211,10.6651,1.3184,1.3264,-0.998625,0,1698374130.6169,69
0.044,0.0896,-0.3957,0.1052,1.1154,-2.604,-0.2581,-1.4658,10.696,0.9969,-2.7878,-1.6456,0.602,11.1074,-0.4714,1.5794,0.0299,-1.4184,0.3691,11.0288,1.2738,1.4504,-0.998932,0,1698374130.6265,69
0.0437,0.0575,-0.3891,0.2777,0.882,-2.2686,-0.3721,-0.8101,11.2838,1.2161,-2.9735,-1.6535,0.4271,11.4229,-0.6384,1.672,-0.6542,-1.286,0.4319,11.3501,1.1483,1.5981,-0.99917,0,1698374130.6368,70
0.0427,-0.008,-0.3804,0.4477,1.1199,-2.0065,-0.5101,-0.3021,11.1677,1.787,-3.2175,-1.5795,0.2426,11.6695,-0.8531,1.7336,-1.2154,-0.9649,0.4808,11.6306,0.9522,1.7269,-0.999356,0,1698374130.6469,71
0.0394,-0.1297,-0.3713,0.5337,1.4641,-1.7065,-0.6462,0.0802,10.9612,2.4795,-3.4011,-1.3797,0.1308,11.7983,-1.1522,1.7947,-1.4476,-0.8016,0.4343,11.8584,0.7804,1.792,-0.999499,0,1698374130.6562,72
0.0333,-0.3018,-0.3635,0.5296,1.8746,-1.4471,-0.7971,0.3638,11.144,2.9827,-3.3869,-1.1052,0.1361,11.8438,-1.4743,1.8989,-1.4524,-1.0054,0.2491,11.9819,0.7196,1.8633,-0.999611,0,1698374130.6673,72
0.0234,-0.4773,-0.3585,0.4686,2.2872,-1.2465,-0.9859,0.506,11.3082,3.3235,-3.2386,-0.8571,0.2049,11.9034,-1.759,1.9338,-1.3454,-1.3768,-0.0311,12.0839,0.7361,1.9241,-0.999698,0,1698374130.6768,73
0.01,-0.6522,-0.3567,0.367,2.4833,-1.0984,-1.1529,0.6491,11.3296,3.5712,-3.0383,-0.5987,0.2891,11.9639,-1.9892,1.9062,-1.1464,-1.7377,-0.3783,12.1365,0.7469,1.9141,-0.999758,0,1698374130.687,74
-0.0067,-0.8519,-0.3568,0.2648,2.6125,-1.0148,-1.2768,0.7239,11.1145,3.6908,-2.6807,-0.3214,0.4055,11.8904,-2.1926,1.9793,-0.8077,-1.96,-0.7672,12.0249,0.7148,1.8898,-0.999537,0,1698374130.6965,75
-0.0266,-1.1145,-0.3562,0.2526,2.6857,-1.0036,-1.4079,0.6178,11.0842,3.764,-2.2785,-0.1195,0.5608,11.5874,-2.3322,2.1158,-0.3631,-2.0202,-1.1605,11.6953,0.6187,1.8904,-0.996546,0,1698374130.7063,76
-0.0487,-1.4106,-0.3529,0.3324,2.6854,-1.1773,-1.4722,0.4339,10.6339,3.6142,-2.0803,-0.0548,0.7078,11.104,-2.3574,2.2087,0.1228,-1.9716,-1.5248,11.1819,0.4911,1.8615,-0.985849,0,1698374130.7167,76
-0.0732,-1.6771,-0.346,0.4817,2.4985,-1.4306,-1.414,0.1732,9.6023,3.3806,-2.0533,-0.1341,0.7896,10.5721,-2.2982,2.2108,0.7525,-1.869,-1.8137,10.6538,0.3148,1.746,-0.966719,0,1698374130.7267,77
-0.0995,-1.922,-0.3351,0.6793,2.1489,-1.5422,-1.2784,-0.1611,9.0221,3.1755,-2.0324,-0.286,0.8062,10.092,-2.1717,2.1128,1.3574,-1.9657,-1.9836,10.2369,0.0362,1.5845,-0.938417,0,1698374130.7377,78
-0.1279,-2.0697,-0.3215,0.8352,1.5773,-1.6322,-1.1194,-0.5065,8.8713,3.0085,-1.8031,-0.6077,0.6769,9.762,-2.0014,1.9642,1.6049,-2.449,-1.9886,10.0043,-0.2061,1.5212,-0.894048,0,1698374130.7466,79
-0.1546,-2.1533,-0.3072,0.9169,0.9877,-1.7814,-0.9942,-0.7644,9.1024,2.8628,-1.2543,-1.1259,0.3864,9.5044,-1.7907,1.821,1.331,-3.098,-1.822,9.8992,-0.3104,1.5274,-0.866078,0,1698374130.7573,80
-0.1789,-2.2322,-0.2938,0.9463,0.626,-1.9161,-0.9464,-0.9161,9.6043,2.7199,-0.9882,-1.4722,0.0772,9.3509,-1.6383,1.636,0.4936,-3.5373,-1.7293,9.8411,-0.312,1.5526,-0.879603,0,1698374130.7673,80
-0.2022,-2.261,-0.2828,0.9284,0.4353,-2.1135,-0.9561,-1.1143,9.9617,2.637,-1.2034,-1.5734,-0.2354,9.3623,-1.5836,1.6943,-0.6571,-3.6902,-1.5414,9.8542,-0.3831,1.5945,-0.905698,0,1698374130.7772,81
-0.2234,-2.249,-0.2738,0.9073,0.3359,-2.4604,-0.9134,-1.1224,10.071,2.5328,-1.5094,-1.83,-0.6478,9.427,-1.517,1.9792,-1.9471,-3.6922,-1.1372,9.9446,-0.5753,1.656,-0.926753,0,1698374130.7868,82
-0.2438,-2.2683,-0.2655,0.8983,0.2935,-2.6292,-0.76,-0.8662,10.1634,2.5213,-2.1289,-2.4094,-1.0814,9.5342,-1.5347,2.0673,-3.3164,-3.7168,-0.7406,10.0891,-0.7247,1.7746,-0.943107,0,1698374130.7973,83
-0.2643,-2.2665,-0.2574,0.8916,0.1916,-2.503,-0.5208,-0.4266,10.4639,2.5033,-2.9373,-2.9822,-1.4353,9.6896,-1.6704,2.0264,-4.4898,-3.5339,-0.3908,10.2308,-0.8126,1.7873,-0.955809,0,1698374130.8067,83
-0.2839,-2.2093,-0.249,0.873,0.1142,-2.3691,-0.2344,0.0829,10.665,2.5022,-3.5601,-3.2242,-1.7212,9.9226,-1.8095,2.0372,-5.2522,-2.9717,-0.1787,10.3563,-0.8863,1.679,-0.965676,0,1698374130.8171,84
-0.3024,-2.096,-0.2402,0.8537,0.1827,-2.1604,0.0929,0.5524,10.5689,2.5564,-4.0217,-3.0944,-1.922,10.1821,-1.9873,2.138,-5.6279,-2.2982,-0.1188,10.4679,-0.959,1.5744,-0.973339,0,1698374130.8268,85
-0.3194,-1.9714,-0.2315,0.8613,0.2427,-1.8576,0.4451,1.0019,10.2609,2.5952,-4.4271,-2.9109,-2.0694,10.3533,-2.2339,2.1134,-5.8336,-1.5415,0.0956,10.7851,-1.0596,1.8178,-0.979292,0,1698374130.8357,86
-0.3345,-1.865,-0.222,0.8742,0.2749,-1.5014,0.7894,1.329,9.9171,2.5581,-4.7956,-2.7129,-2.1209,10.3771,-2.4617,1.8508,-5.8596,-0.9009,0.2485,10.9306,-1.018,2.016,-0.983915,0,1698374130.8474,87
-0.3484,-1.7122,-0.2119,0.8867,0.3126,-1.0603,1.1241,1.4591,9.5318,2.4672,-4.8407,-2.2524,-2.0143,10.3398,-2.5997,1.518,-5.3114,0.188,0.1022,10.7219,-0.8082,1.9008,-0.987507,0,1698374130.8566,87
-0.3604,-1.5898,-0.2022,0.9038,0.3334,-0.5796,1.4421,1.4413,9.2658,2.349,-4.5017,-1.5598,-1.7926,10.298,-2.6567,1.2718,-4.3138,1.6798,-0.0804,10.5156,-0.6177,1.6918,-0.990296,0,1698374130.8673,88
-0.3706,-1.495,-0.1927,0.8941,0.3249,-0.1031,1.7308,1.2969,9.1277,2.2834,-3.9511,-0.8821,-1.5147,10.1658,-2.6132,1.1266,-3.2501,2.8326,-0.2981,10.3071,-0.4625,1.4581,-0.992463,0,1698374130.8772,89
-0.3798,-1.383,-0.1833,0.8763,0.3361,0.3437,1.9815,1.0758,9.0696,2.271,-3.175,-0.4613,-1.2222,9.9496,-2.452,1.0114,-2.2244,3.5362,-0.5167,10.1074,-0.3235,1.3282,-0.994145,0,1698374130.8864,90
-0.3878,-1.2402,-0.174,0.9036,0.3167,0.7495,2.1796,0.8436,9.0771,2.28,-2.2926,-0.2308,-0.9643,9.7452,-2.2369,0.8847,-1.3502,3.5518,-0.7358,9.9419,-0.1961,1.1768,-0.995306,0,1698374130.8966,91
-0.3951,-1.1087,-0.1648,0.9343,0.2761,1.0673,2.3139,0.6331,9.1602,2.2082,-1.4129,-0.0424,-0.7887,9.5638,-2.0116,0.7366,-0.7214,2.9853,-0.9222,9.7997,-0.1254,1.057,-0.949156,0,1698374130.9063,91
-0.4022,-1.0155,-0.1555,0.9578,0.219,1.2732,2.3798,0.4594,9.315,1.9418,-0.8038,0.1968,-0.6812,9.3887,-1.8227,0.527,-0.4299,2.0792,-0.9972,9.6406,-0.1617,0.9948,-0.694249,0,1698374130.9169,92
-0.4087,-0.9232,-0.1462,0.9898,0.155,1.3735,2.3706,0.297,9.3666,1.7138,-0.7312,0.473,-0.5901,9.2433,-1.7573,0.3169,-0.5367,1.1308,-0.9343,9.4748,-0.2991,1.0295,-0.320247,0,1698374130.9271,93
-0.4146,-0.8312,-0.1369,0.9825,0.1479,1.3969,2.3259,0.1732,9.2664,1.6013,-0.9245,0.6551,-0.5211,9.1202,-1.796,0.1993,-1.2076,0.1359,-0.7688,9.3938,-0.5609,0.8985,-0.026223,0,1698374130.9372,94
-0.4206,-0.7614,-0.1276,0.9762,0.076,1.3673,2.2409,0.0984,9.2334,1.4544,-1.1019,0.6806,-0.5075,9.0089,-1.8744,0.1989,-1.9768,-0.7374,-0.722,9.2708,-0.6726,0.8241,0.016035,0,1698374130.947,94
-0.4257,-0.7123,-0.1186,0.991,-0.0575,1.2616,2.0913,0.0639,9.2763,1.2774,-1.1178,0.5011,-0.5549,8.9296,-1.9372,0.2596,-2.0415,-0.7885,-0.7752,9.0777,-0.6081,0.8189,-0.165194,0,1698374130.9567,95
-0.4296,-0.6544,-0.1099,0.9942,-0.1884,1.1353,1.8891,0.021,9.2146,1.1747,-0.9214,0.2355,-0.6454,8.8709,-1.971,0.2855,-1.5729,0.0043,-0.7747,9.0074,-0.5681,0.7152,-0.13655,0,1698374130.9666,96
-0.4329,-0.5753,-0.1013,0.9972,-0.3591,1.0184,1.663,0.0318,9.1721,1.1041,-0.67,0.0871,-0.7395,8.8281,-2.0074,0.2402,-0.9046,1.1102,-0.7658,8.9498,-0.5213,0.765,-0.058625,0,1698374130.9763,97
-0.4359,-0.506,-0.0927,1.0011,-0.5352,0.9199,1.4141,0.1533,9.0918,1.0775,-0.4901,0.0989,-0.8101,8.7977,-2.0341,0.1588,-0.2663,2.0049,-0.7427,8.8992,-0.5314,0.8072,-0.181554,0,1698374130.9877,98
-0.4378,-0.4342,-0.0837,0.9785,-0.7111,0.8315,1.1185,0.3781,8.9874,1.1149,-0.404,0.1856,-0.8675,8.78,-2.0604,0.0993,-0.0423,2.1554,-0.706,8.8973,-0.5789,0.7492,-0.329477,0,1698374130.9991,98
-0.4383,-0.3274,-0.0742,0.9507,-0.8478,0.7322,0.8344,0.5168,8.9911,1.1265,-0.4198,0.2699,-0.9248,8.7887,-2.0956,0.0434,-0.2118,1.6194,-0.6537,8.9111,-0.616,0.6725,-0.460294,0,1698374131.0097,99
-0.4383,-0.2379,-0.0654,0.9348,-1.0025,0.6644,0.554,0.5936,9.1875,1.0527,-0.444,0.3099,-1.0077,8.82,-2.1274,0.0166,-0.467,0.9415,-0.5721,8.9258,-0.6531,0.656,-0.556408,0,1698374131.0197,0
-0.4383,-0.1831,-0.0575,0.8959,-1.121,0.5853,0.2877,0.7126,9.2651,0.9649,-0.4782,0.2992,-1.1266,8.8585,-2.1548,0.0121,-0.5996,0.4891,-0.4755,8.9495,-0.6894,0.6295,-0.601677,0,1698374131.0294,1
-0.4381,-0.1416,-0.0502,0.8505,-0.9412,0.4676,0.0468,0.7726,9.287,0.8962,-0.624,0.2627,-1.2753,8.8914,-2.2031,-0.0053,-0.5287,0.3244,-0.4056,8.9687,-0.6992,0.5718,-0.614439,0,1698374131.0391,2
-0.4372,-0.0534,-0.0431,0.8118,-0.8842,0.4265,-0.1395,0.7282,9.3323,0.7688,-0.7347,0.2481,-1.4384,8.9017,-2.2243,0.0036,-0.3271,0.3549,-0.3803,8.965,-0.6757,0.5219,-0.622347,0,1698374131.0486,2
-0.4345,0.0689,-0.0358,0.8073,-1.3001,0.5454,-0.3149,0.8302,8.966,0.8489,-0.6213,0.3202,-1.5737,8.8859,-2.1905,0.0539,-0.1458,0.4383,-0.4024,8.9441,-0.6185,0.4736,-0.632812,0,1698374131.0581,3
-0.43,0.2079,-0.0288,0.8152,-1.8745,0.6932,-0.5543,1.2572,8.9421,0.9498,-0.2341,0.4546,-1.6438,8.8557,-2.1635,0.1076,-0.0271,0.5678,-0.4357,8.9328,-0.5519,0.4352,-0.64878,0,1698374131.0677,4
-0.4227,0.3734,-0.0219,0.7953,-2.0164,0.7057,-0.7845,1.4402,8.9637,0.9756,0.2525,0.6868,-1.5875,8.8205,-2.1652,0.1082,-0.027,0.7621,-0.4394,8.9552,-0.4905,0.4575,-0.675293,0,1698374131.0765,5
-0.4128,0.5808,-0.0146,0.7856,-1.6818,0.7375,-0.9582,1.375,8.5223,1.079,0.644,0.9814,-1.3775,8.7662,-2.1366,0.0725,-0.1538,0.925,-0.4193,9.0164,-0.4362,0.5216,-0.710249,0,1698374131.0867,6
-0.4005,0.7558,-0.0065,0.8215,-1.3086,0.8969,-1.1212,1.4328,8.1669,1.1986,0.8697,1.2332,-1.073,8.7427,-2.0788,0.0197,-0.197,1.0021,-0.4139,9.0964,-0.3654,0.55,-0.731427,0,1698374131.0965,6
-0.3862,0.8599,0.0022,0.8514,-1.0988,1.0727,-1.2896,1.4446,8.5363,1.2475,0.9113,1.422,-0.7462,8.8105,-2.0377,-0.0454,0.1104,1.1054,-0.4319,9.1975,-0.3042,0.5472,-0.702009,0,1698374131.1068,7
-0.3717,0.981,0.0113,0.8465,-0.8481,1.2757,-1.4042,1.4906,9.3182,1.11,0.7586,1.5686,-0.459,8.9794,-2.0322,-0.0745,0.8272,1.3749,-0.4527,9.3425,-0.289,0.5771,-0.650123,0,1698374131.1168,8
-0.3587,1.0421,0.0205,0.8606,-0.2818,1.3379,-1.3978,1.3398,9.6273,1.1738,0.502,1.6893,-0.2531,9.2384,-2.0536,-0.0603,1.7495,1.7614,-0.4731,9.5536,-0.3171,0.6444,-0.452085,0,1698374131.1267,9
-0.3481,1.0044,0.0289,0.8794,0.2458,1.267,-1.2812,1.0276,9.8401,1.2838,0.3333,1.7532,-0.1425,9.539,-2.0764,0.0224,2.5128,2.1009,-0.4975,9.7964,-0.3571,0.7069,-0.131862,0,1698374131.1377,10
-0.3413,0.8608,0.0361,0.8425,0.7008,1.2553,-1.1156,0.8227,9.5927,1.4018,0.2603,1.7296,-0.1155,9.8542,-2.0751,0.1361,2.8705,2.3321,-0.5172,10.0138,-0.3846,0.7613,0.120172,0,1698374131.1468,10
-0.3397,0.6442,0.0417,0.7517,0.94,1.2301,-0.912,0.5025,9.6764,1.4418,0.2163,1.6422,-0.1021,10.1186,-2.0623,0.2391,2.862,2.5024,-0.5224,10.2041,-0.3705,0.834,0.316394,0,1698374131.1563,11
-0.3413,0.4569,0.0454,0.6615,0.9579,1.3076,-0.724,0.3847,10.0413,1.1108,0.2785,1.4934,-0.0483,10.3127,-2.077,0.4225,2.7624,2.6994,-0.5238,10.3358,-0.3151,0.9156,0.468997,0,1698374131.1669,12
-0.3441,0.3074,0.0479,0.5819,0.7366,1.4991,-0.5456,0.4514,9.8917,0.7941,0.619,1.2602,0.0319,10.4218,-2.086,0.6516,2.8011,2.924,-0.5368,10.3609,-0.2393,0.9835,0.587554,0,1698374131.1765,13
-0.3478,0.138,0.05,0.5124,0.5111,1.7245,-0.3363,0.5369,9.7098,0.5927,1.1256,1.0978,0.1368,10.4242,-2.1053,0.7854,2.9657,3.0993,-0.5717,10.2951,-0.1702,1.0494,0.679641,0,1698374131.1868,14
-0.3524,-0.0263,0.0521,0.4424,0.5472,1.9916,-0.138,0.8083,9.6054,0.455,1.5523,1.0688,0.2481,10.3499,-2.132,0.8148,3.1549,3.1511,-0.6277,10.1858,-0.1358,1.1021,0.751168,0,1698374131.1969,15
-0.3578,-0.1391,0.054,0.3797,0.5378,2.2545,0.0229,1.176,9.8041,0.2949,1.9212,1.054,0.2859,10.2668,-2.0951,0.7865,3.2934,2.969,-0.6747,10.084,-0.1347,1.1324,0.806725,0,1698374131.2064,15
-0.3633,-0.1992,0.0558,0.3326,0.6481,2.4544,0.1581,1.3518,10.0536,0.1542,2.3645,0.9641,0.15,10.2525,-2.0872,0.7633,3.2791,2.5045,-0.6481,10.0744,-0.1806,1.1503,0.849877,0,1698374131.2167,16
-0.3673,-0.202,0.057,0.2761,0.819,2.6506,0.281,1.3346,9.9146,0.1366,2.6867,0.6965,-0.0365,10.4202,-2.2011,0.6851,3.1171,1.7994,-0.5294,10.2105,-0.2922,1.1621,0.883395,0,1698374131.2263,17
-0.3689,-0.1502,0.0576,0.2116,0.8937,2.8933,0.3398,1.3659,10.0724,0.1972,2.9106,-0.1121,-0.2453,10.7504,-2.2652,0.4765,2.964,0.9314,-0.3537,10.4702,-0.3941,1.1964,0.90943,0,1698374131.2368,18
-0.3677,-0.0506,0.0576,0.1516,0.8427,3.0725,0.3701,1.2448,10.7153,0.329,3.3751,-1.4159,-0.5498,11.1036,-2.2993,0.3356,2.9687,0.039,-0.1278,10.8371,-0.3902,1.2682,0.929651,0,1698374131.2469,19
-0.3644,0.0554,0.0574,0.1095,0.7665,3.1008,0.4372,0.822,11.4523,0.4913,4.1176,-2.7397,-0.8741,11.5426,-2.318,0.4248,2.882,-0.7241,0.115,11.2744,-0.2858,1.4415,0.945357,0,1698374131.2572,19
-0.3597,0.1534,0.0573,0.0675,0.7337,3.0053,0.5242,0.2921,12.1663,0.8474,4.8537,-3.779,-1.2154,12.0656,-2.1567,0.6916,2.4124,-1.2741,0.3394,11.7506,-0.1483,1.7296,0.957556,0,1698374131.2668,20
-0.3545,0.2348,0.056,-0.0094,0.6017,2.8305,0.7076,-0.2371,12.3366,1.4116,5.2985,-4.3119,-1.4797,12.6448,-1.9471,0.9878,1.6574,-1.6417,0.5802,12.2844,0.021,2.0675,0.967033,0,1698374131.2764,21
-0.3497,0.2785,0.0519,-0.1372,0.6679,2.6777,1.0419,-0.9039,12.6346,1.929,5.4079,-4.4914,-1.506,13.1489,-1.7956,1.2366,0.7684,-1.8182,0.8635,12.773,0.2175,2.4403,0.974393,0,1698374131.2871,22
-0.3459,0.2781,0.0435,-0.3189,1.0448,2.5266,1.4114,-1.5737,12.9703,2.2082,5.1282,-4.3658,-1.2419,13.3597,-1.6122,1.4656,0.1189,-1.7473,1.1245,13.0154,0.4631,2.7775,0.980109,0,1698374131.2962,23
-0.3436,0.2346,0.0304,-0.5594,1.289,2.3206,1.6721,-1.8667,12.7083,2.2988,4.466,-3.8831,-0.7495,13.3669,-1.3839,1.6321,-0.2604,-1.5908,1.2198,13.0259,0.7947,3.0009,0.984547,0,1698374131.3071,23
-0.3424,0.1847,0.0134,-0.8309,1.4438,2.0379,1.7953,-1.7856,12.513,2.4305,3.5598,-3.0625,-0.1233,13.2092,-1.0936,1.7162,-0.774,-1.6184,1.1004,12.9157,1.1389,3.0875,0.987766,0,1698374131.3165,24
-0.3408,0.1934,-0.0066,-1.1003,1.7634,1.6343,1.8475,-1.4851,12.1142,2.6832,3.0612,-1.4382,0.7261,13.0882,-0.7646,2.3377,-1.173,-1.9134,0.8031,12.6168,1.419,3.0503,0.98779,0,1698374131.3264,25
-0.3367,0.2796,-0.0291,-1.408,2.0406,1.2679,1.8292,-1.084,11.1891,2.9247,2.4907,0.2009,1.4071,12.6487,-0.4078,2.5638,-1.0218,-2.4681,0.4188,12.0942,1.5356,2.9631,0.985493,0,1698374131.3366,26
-0.3284,0.4796,-0.0533,-1.6692,1.9969,1.1206,1.6932,-0.7503,10.319,3.0382,1.0804,1.2652,1.8211,11.9289,-0.4859,2.1074,-0.3437,-3.1077,0.0683,11.4452,1.5326,2.773,0.985902,0,1698374131.3468,27
-0.316,0.7138,-0.0791,-1.9063,1.8103,1.2012,1.4682,-0.513,9.7725,2.9762,-0.1846,2.253,2.3079,11.4914,-0.7787,1.9876,0.506,-3.6028,-0.2201,10.7787,1.46,2.5139,0.988762,0,1698374131.3569,27
-0.3006,0.932,-0.1061,-2.1102,1.7396,1.5264,1.1981,-0.3771,9.3489,3.0197,-0.2613,2.8924,2.5455,11.0369,-0.7296,2.0701,1.1609,-3.8467,-0.4194,10.1628,1.2865,2.3038,0.99127,0,1698374131.3667,28
-0.2839,1.1353,-0.133,-2.2749,1.602,1.7662,0.932,-0.3677,9.1026,3.1155,0.3012,2.7338,2.3601,10.5714,-0.6121,2.0505,1.69,-3.5556,-0.3731,9.6696,1.0933,2.1559,0.993219,0,1698374131.3765,29
-0.2677,1.2668,-0.1593,-2.4397,1.2847,1.8126,0.6989,-0.3557,9.0988,3.056,0.9238,1.9134,1.9588,10.2124,-0.5512,1.8803,2.0789,-3.2868,-0.1207,9.2613,1.0372,1.9522,0.994733,0,1698374131.387,30
-0.2529,1.3061,-0.185,-2.5148,0.8549,1.8112,0.5144,-0.2877,9.4689,2.8994,1.6487,1.0487,1.5653,9.9198,-0.5037,1.8643,2.3596,-2.8574,0.1333,8.9594,1.1605,1.7844,0.995909,0,1698374131.3964,31
-0.2405,1.2431,-0.2107,-2.553,0.5527,1.6627,0.3839,-0.4868,9.9779,2.6858,2.1938,0.5594,1.327,9.813,-0.3647,2.1272,2.7489,-1.6648,0.4048,8.8299,1.295,1.7754,0.996811,0,1698374131.4071,31
-0.2303,1.1787,-0.2362,-2.5625,0.3725,1.5584,0.3021,-0.8867,10.0194,2.5367,2.5013,0.3038,1.1827,9.8335,-0.2207,2.4049,3.0377,-0.4223,0.7059,8.8366,1.409,1.8192,0.997503,0,1698374131.4176,32
-0.2211,1.1292,-0.2612,-2.5116,0.2325,1.3863,0.1943,-1.323,9.7061,2.569,2.8108,-0.0924,0.9616,9.8651,-0.0914,2.4284,2.6748,0.5095,0.9697,9.2135,1.4343,1.768,0.998052,0,1698374131.4268,33
-0.2131,1.0704,-0.2856,-2.4261,0.0249,1.1443,-0.0036,-1.7436,9.5293,2.511,3.3138,-0.5221,0.6663,9.9536,0.0103,2.408,2.0163,1.0339,1.1976,9.6803,1.3935,2.0647,0.998485,0,1698374131.4364,34
-0.2051,1.0215,-0.3089,-2.3202,-0.2403,0.9981,-0.2383,-2.0685,9.6236,2.1898,3.7504,-0.7535,0.3935,10.0424,0.0177,2.4733,1.4366,1.4838,1.4674,9.8026,1.3931,2.3,0.996257,0,1698374131.4467,35
-0.1962,1.0098,-0.3307,-2.2645,-0.3057,0.7397,-0.5127,-2.3657,9.5903,2.0497,3.8433,-0.6325,0.2276,10.0568,0.009,2.5925,1.0921,2.5209,1.7273,9.8756,1.3688,2.2544,0.847754,0,1698374131.4566,35
-0.1863,1.0322,-0.3502,-2.18,-0.3139,0.4282,-0.7956,-2.5805,9.1948,2.0108,3.4885,-0.1609,0.178,9.9892,0.0341,2.6693,0.8594,3.8387,1.8057,9.9187,1.383,2.365,0.511876,0,1698374131.4668,36
-0.1756,1.0698,-0.3674,-2.026,-0.2904,0.1292,-1.0879,-2.7225,8.756,1.8852,2.7834,0.5215,0.2042,9.8316,0.0816,2.6279,0.4247,5.0062,1.6884,9.8255,1.4389,2.3902,0.174541,0,1698374131.4766,37
-0.1645,1.1263,-0.3822,-1.9106,-0.1443,-0.2454,-1.3924,-2.754,8.5203,1.7527,1.9418,1.2398,0.2911,9.6213,0.0763,2.4758,0.1194,5.314,1.3774,9.712,1.4939,2.3147,-0.087638,0,1698374131.4878,38
-0.1528,1.1416,-0.3948,-1.7318,0.1225,-0.6429,-1.6485,-2.6232,8.2439,1.6468,1.1193,1.8805,0.4199,9.4873,0.0056,2.333,-0.0836,4.5671,0.9441,9.5519,1.5098,2.1616,-0.291321,0,1698374131.498,39
-0.1411,1.1179,-0.4052,-1.519,0.409,-1.0624,-1.8551,-2.409,7.9876,1.599,0.495,2.4096,0.5455,9.4314,-0.0541,2.1855,-0.1901,3.5447,0.5855,9.3503,1.4853,2.0251,-0.449542,0,1698374131.5073,40
-0.1306,1.1227,-0.4129,-1.3543,0.7134,-1.511,-2.0011,-2.2718,7.9229,1.613,0.0782,2.7576,0.6431,9.3681,-0.1029,2.0287,-0.232,2.2912,0.3282,9.2071,1.4642,1.8627,-0.572443,0,1698374131.5168,40
-0.1209,1.1025,-0.4199,-1.2025,0.9924,-1.9421,-2.1205,-2.2221,8.103,1.5882,-0.2455,2.842,0.7001,9.3113,-0.1664,1.8986,-0.3565,0.7552,0.13,9.1127,1.4587,1.7055,-0.667904,0,1698374131.5264,41
-0.1113,1.0333,-0.4269,-1.0647,1.0114,-2.2113,-2.2158,-2.0398,8.5089,1.4164,-0.5072,2.7705,0.7231,9.243,-0.2094,1.7797,-0.5368,-0.7387,0.0017,9.0043,1.4681,1.5388,-0.742051,0,1698374131.5364,42
-0.1019,0.9762,-0.4331,-0.9592,0.8821,-2.3718,-2.2514,-1.8027,8.9834,1.2239,-0.7198,2.6339,0.7188,9.181,-0.2189,1.7327,-0.7169,-1.7653,-0.012,8.8686,1.4681,1.4289,-0.799643,0,1698374131.5466,43
-0.0927,0.9354,-0.4394,-0.8751,0.7187,-2.4701,-2.2714,-1.5879,9.414,1.0629,-0.891,2.3975,0.6678,9.1619,-0.213,1.7959,-1.0093,-2.2942,0.0993,8.7386,1.4596,1.34,-0.844377,0,1698374131.5563,44
-0.0839,0.9138,-0.4452,-0.8099,0.4298,-2.474,-2.2674,-1.3148,9.7814,0.8891,-0.948,2.0928,0.5668,9.1505,-0.2151,1.8937,-1.4392,-2.3182,0.3247,8.6493,1.4549,1.2076,-0.879123,0,1698374131.5672,44
-0.0754,0.9203,-0.4502,-0.7533,0.1731,-2.4514,-2.2174,-1.0552,9.9352,0.8365,-0.8722,1.8578,0.4483,9.1425,-0.2047,1.9512,-2.0015,-1.8808,0.642,8.6185,1.4429,1.128,-0.906111,0,1698374131.5766,45
-0.0673,0.9333,-0.4552,-0.6923,0.0273,-2.4237,-2.1402,-0.9086,9.9542,0.8812,-0.7289,1.8211,0.3196,9.1472,-0.1947,1.9883,-2.7366,-1.3443,0.9976,8.6063,1.3847,1.0659,-0.927074,0,1698374131.587,46
-0.0599,0.9104,-0.4604,-0.663,-0.218,-2.3195,-2.024,-0.8188,9.8019,0.9645,-0.5512,1.9664,0.1966,9.1817,-0.2313,2.0073,-3.5393,-0.9549,1.3343,8.6311,1.3066,0.9763,-0.943356,0,1698374131.5971,47
-0.0527,0.8439,-0.4648,-0.6292,-0.567,-2.1235,-1.8383,-0.7544,9.4655,1.1084,-0.3228,2.1781,0.0926,9.2479,-0.2734,1.9553,-4.1636,-0.6924,1.5694,8.7211,1.2823,0.9398,-0.956003,0,1698374131.6067,48
-0.0464,0.7659,-0.4682,-0.568,-0.8875,-1.8946,-1.5943,-0.6923,9.1195,1.1525,0.0157,2.3468,-0.0232,9.3091,-0.2762,1.8488,-4.5054,-0.6266,1.6889,8.8055,1.2835,1.0034,-0.965826,0,1698374131.6165,48
-0.0405,0.7185,-0.4713,-0.5059,-1.1604,-1.687,-1.3358,-0.654,8.8849,1.1295,0.3953,2.4574,-0.1191,9.3314,-0.2762,1.7546,-4.4641,-0.567,1.7017,8.8767,1.2756,1.0974,-0.973456,0,1698374131.6272,49
-0.0344,0.6916,-0.4742,-0.4478,-1.3995,-1.5095,-1.0677,-0.7103,8.7813,1.1486,0.7345,2.4785,-0.1654,9.3327,-0.266,1.6598,-4.034,-0.2744,1.6178,8.9549,1.2729,1.1616,-0.979383,0,1698374131.6372,50
-0.0286,0.6787,-0.4767,-0.4021,-1.6774,-1.3265,-0.7896,-0.7434,8.7618,1.157,1.0483,2.4216,-0.1971,9.35,-0.2178,1.5527,-3.4665,0.0271,1.511,9.0104,1.2321,1.2214,-0.983986,0,1698374131.6463,51
-0.0234,0.6676,-0.4783,-0.3449,-1.8582,-1.2201,-0.6238,-0.8086,8.9088,1.1427,1.3329,2.3851,-0.2422,9.3876,-0.168,1.4605,-2.8297,0.2126,1.4237,9.0588,1.2015,1.2339,-0.987561,0,1698374131.6565,52
-0.0182,0.6397,-0.4788,-0.2719,-2.1061,-1.0736,-0.4457,-0.9213,9.1196,0.9511,1.5181,2.3422,-0.3097,9.4266,-0.1285,1.4135,-2.2217,0.3286,1.3636,9.0985,1.1985,1.2428,-0.990339,0,1698374131.667,52
-0.0129,0.6174,-0.4789,-0.2104,-2.3923,-0.9155,-0.1675,-1.0657,9.1787,0.858,1.4515,2.2101,-0.4106,9.4625,-0.096,1.3961,-1.7836,0.4494,1.3245,9.1534,1.2048,1.2809,-0.992496,0,1698374131.6771,53
-0.0077,0.6052,-0.4787,-0.1676,-2.5584,-0.8864,0.086,-1.1362,9.1108,0.9352,1.2123,1.9532,-0.5512,9.5038,-0.0627,1.3726,-1.4373,0.6429,1.2934,9.2538,1.2492,1.2748,-0.994171,0,1698374131.6869,54
-0.0027,0.5955,-0.4783,-0.1351,-2.7309,-0.8766,0.3384,-1.1271,9.1527,0.7368,0.8612,1.6966,-0.6527,9.5372,-0.0551,1.3018,-1.0243,0.9653,1.2692,9.3235,1.308,1.2569,-0.995472,0,1698374131.6967,55
0.0026,0.5837,-0.4765,-0.0451,-2.6876,-0.9175,0.5156,-1.17,9.3774,0.432,0.4462,1.5092,-0.689,9.5479,-0.0617,1.2865,-0.4913,1.3479,1.1856,9.329,1.3828,1.2013,-0.996404,0,1698374131.7068,56
0.0078,0.5561,-0.472,0.1066,-2.4571,-1.0687,0.7317,-1.2239,8.7592,0.5114,0.1187,1.2555,-0.7445,9.4779,-0.0133,1.3194,0.0795,1.714,1.0431,9.2776,1.4562,1.1352,-0.997044,0,1698374131.7173,56
0.0124,0.5214,-0.4647,0.2613,-2.4315,-1.2397,1.0614,-1.3021,7.5886,0.7516,-0.2703,0.9083,-0.7807,9.3532,0.0466,1.2796,0.5509,1.8868,0.8899,9.195,1.527,1.1033,-0.997591,0,1698374131.7266,57
0.017,0.5277,-0.4547,0.4541,-2.6127,-1.2618,1.3516,-1.3345,7.0881,0.7593,-0.7583,0.5748,-0.6844,9.2198,0.0665,1.2403,0.8063,1.7918,0.7402,9.0937,1.5845,1.1208,-0.998034,0,1698374131.737,58
0.0223,0.5482,-0.4424,0.6649,-2.5114,-1.2619,1.5796,-1.3573,6.8094,0.764,-1.2975,0.3047,-0.4409,9.0744,0.087,1.194,0.8803,1.4572,0.56,8.9805,1.6152,1.1506,-0.998334,0,1698374131.7467,59
0.028,0.5509,-0.4287,0.8674,-1.9888,-1.3813,1.7558,-1.3338,6.7402,0.8882,-1.8722,0.002,-0.1316,9.0027,0.135,1.1255,1.046,0.9092,0.3373,8.9043,1.6228,1.1132,-0.998628,0,1698374131.7571,60
0.0336,0.5486,-0.4151,0.9952,-1.3493,-1.5133,1.8773,-1.2167,6.7803,1.1306,-2.2189,-0.4334,0.1367,9.0576,0.2311,1.0736,1.3605,0.2817,0.161,8.9219,1.6383,1.0822,-0.99893,0,1698374131.7666,60
0.0392,0.5461,-0.4024,1.0194,-0.8168,-1.5757,1.9487,-1.1011,6.9352,1.3721,-2.1636,-0.8491,0.3367,9.2246,0.2774,1.1188,1.6703,-0.3097,0.082,9.0355,1.6634,1.087,-0.999168,0,1698374131.7771,61
0.0442,0.5352,-0.3914,1.011,-0.3743,-1.5603,1.9488,-1.0122,7.6034,1.4447,-1.8777,-1.0936,0.4988,9.494,0.2161,1.2766,1.9749,-0.6924,0.1118,9.2034,1.657,1.1276,-0.999354,0,1698374131.7869,62
0.0477,0.4844,-0.3825,0.9731,0.0112,-1.5133,1.8721,-0.9957,8.5028,1.3921,-1.7034,-1.2486,0.6119,9.8198,0.1064,1.4788,2.1195,-0.7791,0.2031,9.3856,1.5999,1.2474,-0.999477,0,1698374131.7983,63
0.0497,0.3979,-0.3765,0.8676,0.2484,-1.4513,1.7282,-0.9343,9.1436,1.3007,-1.8492,-1.3954,0.6554,10.1376,-0.0367,1.6319,2.0136,-0.6028,0.3132,9.5691,1.4602,1.4021,-0.998954,0,1698374131.8077,64
0.051,0.3279,-0.375,0.6832,0.4191,-1.4696,1.515,-1.0168,9.5748,1.0038,-2.1925,-1.4659,0.6629,10.3972,-0.2356,1.6679,1.7984,-0.2732,0.4329,9.7296,1.2548,1.5277,-0.997987,0,1698374131.8177,65
0.0521,0.2968,-0.377,0.4626,0.5201,-1.4302,1.237,-1.0517,9.8429,0.642,-2.5112,-1.5037,0.6899,10.561,-0.4542,1.6812,1.6143,0.0501,0.5292,9.8796,1.0534,1.5998,-0.997159,0,1698374131.8277,65
0.0531,0.2645,-0.3804,0.2559,0.6147,-1.4021,0.9085,-1.004,10.2609,0.504,-2.7511,-1.643,0.774,10.701,-0.6427,1.7145,1.5274,0.2194,0.587,10.0945,0.9256,1.5852,-0.996046,0,1698374131.8365,66
0.0536,0.2048,-0.384,0.1179,0.8229,-1.4407,0.5298,-1.0773,10.7024,0.4623,-2.8777,-1.8474,0.8691,10.9163,-0.7966,1.6703,1.3663,0.1907,0.6336,10.4103,0.8225,1.5352,-0.994845,0,1698374131.8471,67
0.0541,0.1606,-0.3866,0.0653,1.0118,-1.4188,0.0865,-1.0669,11.0031,0.5408,-2.7392,-2.048,0.9337,11.2392,-0.9573,1.5933,1.0783,-0.0156,0.7098,10.8087,0.6764,1.5583,-0.994728,0,1698374131.8567,68
0.0543,0.1337,-0.3869,0.0588,1.1875,-1.4128,-0.4137,-1.0695,11.4741,0.7742,-2.3555,-2.266,0.965,11.6046,-1.1369,1.5444,0.8359,-0.285,0.8057,11.2013,0.5355,1.696,-0.995654,0,1698374131.8676,69
0.0543,0.0924,-0.3861,0.0547,1.3326,-1.3903,-0.9523,-1.0496,12.1042,1.0065,-1.9415,-2.4123,0.9902,11.9227,-1.3285,1.5486,0.715,-0.4491,0.8997,11.5255,0.4425,1.9014,-0.9966,0,1698374131.8764,69
0.0543,0.061,-0.3855,0.0918,1.4231,-1.2612,-1.4635,-1.0595,12.6839,1.2225,-1.655,-2.4578,1.0413,12.1865,-1.514,1.6439,0.5392,-0.4035,1.012,11.8163,0.3725,2.0702,-0.997339,0,1698374131.8867,70
0.0538,0.0286,-0.3838,0.1441,1.0084,-0.8243,-1.9151,-0.8187,13.0706,1.4207,-1.6343,-2.4692,1.0572,12.4409,-1.5963,1.7635,0.0899,-0.1227,1.1546,12.1055,0.2491,2.1481,-0.997924,0,1698374131.8972,71
0.0514,-0.0636,-0.3806,0.1902,0.5168,-0.352,-2.2735,-0.5066,13.7115,1.4533,-1.741,-2.3554,1.0141,12.6372,-1.6525,1.868,-0.5667,0.2403,1.3199,12.3684,0.1014,2.2266,-0.998387,0,1698374131.9063,72
0.0457,-0.2573,-0.377,0.2527,0.7247,-0.2109,-2.4769,-0.5536,14.012,1.5209,-1.7191,-2.0727,0.9875,12.6865,-1.8119,1.9547,-1.1832,0.4336,1.4227,12.5065,0.0549,2.3541,-0.998747,0,1698374131.9168,73
0.0356,-0.5173,-0.3735,0.3007,1.0668,-0.1449,-2.502,-0.6817,13.2897,1.7589,-1.6841,-1.7006,1.0682,12.5101,-1.9915,2.0114,-1.622,0.3077,1.3534,12.4813,0.0955,2.4651,-0.999027,0,1698374131.9266,73
0.0212,-0.8264,-0.3697,0.33,1.3095,-0.1268,-2.3493,-0.8551,12.3218,2.0803,-1.6561,-1.2352,1.2621,12.0896,-2.0399,1.9836,-1.8717,-0.0492,1.1164,12.3182,0.1419,2.5207,-0.999244,0,1698374131.9366,74
0.0032,-1.0887,-0.3654,0.3684,1.6207,-0.2627,-2.0646,-1.188,11.468,2.4789,-1.758,-0.6768,1.5508,11.5587,-1.9457,2.013,-2.0034,-0.4449,0.761,12.022,0.1975,2.5114,-0.999413,0,1698374131.9472,75
-0.0187,-1.3383,-0.3609,0.4086,1.6741,-0.2677,-1.7053,-1.4651,10.7024,2.6542,-2.0458,-0.3113,1.8176,10.9997,-1.7729,2.1395,-2.0341,-0.8229,0.3213,11.5947,0.2624,2.4197,-0.999544,0,1698374131.9572,76
-0.043,-1.6561,-0.3557,0.4658,1.4787,-0.2128,-1.336,-1.5723,10.2056,2.6076,-2.2618,-0.2506,1.8851,10.4484,-1.5681,2.1691,-1.9796,-1.4148,-0.1224,11.0608,0.3296,2.2082,-0.999646,0,1698374131.9666,77
-0.068,-1.8944,-0.3483,0.5874,1.2375,-0.2605,-0.9749,-1.5281,9.7221,2.6236,-2.519,-0.3032,1.7475,9.9739,-1.3692,2.0544,-1.9202,-2.1473,-0.4688,10.5378,0.4112,1.9461,-0.999725,0,1698374131.9773,77
-0.0951,-2.1051,-0.3382,0.7467,0.9418,-0.3479,-0.6255,-1.2967,9.5102,2.649,-2.8645,-0.3211,1.5162,9.6115,-1.3056,1.9622,-1.9021,-2.7204,-0.8972,10.3326,0.4213,1.3026,-0.999786,0,1698374131.9869,78
-0.123,-2.3345,-0.3256,0.9105,0.6833,-0.4822,-0.3114,-1.0855,9.411,2.7343,-3.0834,-0.3613,1.2164,9.3122,-1.3705,2.0306,-1.5515,-2.2905,-1.1499,10.1619,0.29,0.6975,-0.999834,0,1698374131.9969,79
-0.1502,-2.5192,-0.3118,1.0192,0.4227,-0.6453,-0.0939,-1.0083,9.3305,2.8818,-2.9432,-0.6014,0.8293,9.0839,-1.4966,2.1537,-0.7653,-0.9807,-1.1211,9.8813,0.1078,0.6187,-0.989714,0,1698374132.0066,80
-0.1772,-2.585,-0.2985,1.0843,0.2323,-0.7881,-0.0724,-1.0123,9.4559,2.9549,-2.3478,-0.6703,0.342,8.993,-1.659,2.228,0.0013,0.4763,-1.1235,9.7419,-0.0698,0.731,-0.8456,0,1698374132.0173,81
-0.2038,-2.56,-0.287,1.1052,0.0665,-0.9008,-0.2202,-1.0038,9.545,2.9598,-1.962,-0.5891,-0.2112,8.9413,-1.8022,2.155,0.4765,1.9216,-1.0274,9.6177,-0.3205,0.9853,-0.674618,0,1698374132.0267,81
-0.2288,-2.5439,-0.2775,1.0658,-0.1466,-0.9943,-0.4713,-0.8005,9.6265,2.9971,-2.0245,-0.5721,-0.6767,8.9297,-1.9086,2.0355,0.4512,2.8542,-0.8521,9.6144,-0.6706,1.2881,-0.666705,0,1698374132.0363,82
-0.2527,-2.4929,-0.2694,0.9984,-0.3036,-1.015,-0.7098,-0.54,9.577,3.1679,-2.2162,-0.7711,-0.9812,8.9547,-1.9983,2.0482,-0.2639,3.0519,-0.6402,9.6953,-0.9646,1.5265,-0.729364,0,1698374132.0475,83
-0.2783,-2.4918,-0.2621,0.9205,-0.5015,-0.9091,-0.8576,-0.161,9.5549,3.2598,-2.6165,-1.1864,-1.2151,9.1281,-1.9992,1.9052,-1.5599,2.574,-0.4185,9.7492,-1.0754,1.717,-0.789372,0,1698374132.0565,84
-0.3031,-2.5459,-0.2548,0.8909,-0.7386,-0.717,-0.8897,0.3427,9.6016,3.2619,-3.0536,-1.6786,-1.5485,9.4271,-1.9943,1.9329,-2.8392,2.0017,-0.2752,9.8326,-1.0653,1.9639,-0.836369,0,1698374132.0665,85
-0.3262,-2.5466,-0.2472,0.8745,-0.8623,-0.4902,-0.7928,0.7272,9.5507,3.399,-2.9814,-2.8142,-2.0733,9.6468,-1.9993,2.0166,-3.6625,1.6322,-0.2245,9.9732,-1.0964,2.2297,-0.872894,0,1698374132.0771,85
-0.3493,-2.4724,-0.2398,0.8604,-0.9107,-0.1666,-0.5692,1.0513,9.4912,3.4962,-2.6808,-3.7815,-2.5151,9.8498,-1.9818,1.9376,-3.5069,2.5595,-0.1748,10.0496,-1.0054,2.3436,-0.901272,0,1698374132.0878,86
-0.3712,-2.333,-0.2317,0.889,-0.8358,0.2841,-0.1979,1.2624,9.2471,3.4064,-2.5956,-3.8204,-2.6059,10.0547,-2.0917,1.9749,-3.1448,3.1741,-0.1925,10.0386,-0.8968,2.1828,-0.923315,0,1698374132.0975,87
-0.3901,-2.185,-0.2239,0.9243,-0.6762,0.8174,0.2431,1.4261,8.9729,3.2446,-2.5789,-3.1739,-2.3297,10.2404,-2.3123,1.914,-3.1985,2.7005,-0.334,10.0932,-0.8776,2.1418,-0.940436,0,1698374132.1068,88
-0.4057,-2.0009,-0.2161,0.9378,-0.5087,1.3169,0.7339,1.4161,9.01,3.0493,-2.2932,-1.9944,-1.7478,10.2964,-2.5753,1.8095,-3.0817,2.6002,-0.5122,10.0714,-0.7005,2.1818,-0.95373,0,1698374132.1177,89
-0.4192,-1.7754,-0.2071,0.941,-0.2679,1.7577,1.2404,1.228,9.0778,2.8667,-1.8582,-0.6018,-1.0104,10.2143,-2.716,1.591,-2.8359,2.385,-0.7127,10.0436,-0.5327,2.0684,-0.963199,0,1698374132.1274,90
-0.4299,-1.5698,-0.1985,0.9672,-0.0613,2.2176,1.725,1.0302,8.9325,2.6163,-1.6456,0.8881,-0.228,10.096,-2.6871,1.3387,-2.5537,2.0663,-0.8668,10.0665,-0.4331,1.9171,-0.757714,0,1698374132.1366,90
-0.4377,-1.392,-0.1901,0.9846,0.0439,2.6474,2.1534,0.7061,8.9428,2.3419,-1.3399,2.2481,0.4675,9.9314,-2.5786,1.1868,-2.2383,1.7394,-0.9635,10.0184,-0.3389,1.8339,-0.375695,0,1698374132.147,91
-0.4437,-1.2081,-0.1814,0.9811,0.186,3.0092,2.5023,0.4063,9.0267,2.1723,-0.7232,3.1996,0.9319,9.7124,-2.4109,1.0456,-1.7445,1.4762,-1.1059,9.912,-0.2449,1.8395,-0.068544,0,1698374132.1564,92
-0.4477,-1.0073,-0.1725,0.99,0.305,3.2494,2.7588,0.1205,9.0655,2.0254,0.0387,3.7078,1.1307,9.4766,-2.204,0.8364,-1.2672,0.9291,-1.2966,9.7139,-0.2171,1.7399,0.170031,0,1698374132.1663,93
-0.4509,-0.8564,-0.1635,1.0042,0.6479,3.3593,2.9436,-0.0788,8.7762,1.9963,0.6842,3.9457,1.124,9.2402,-1.9898,0.5954,-1.0012,0.0679,-1.4303,9.4318,-0.2548,1.5952,0.355338,0,1698374132.1767,94
-0.4547,-0.759,-0.1544,1.0068,0.9961,3.4318,3.0777,-0.247,8.3186,2.0976,1.0884,4.1083,0.9893,9.0553,-1.8007,0.4379,-0.8305,-0.7681,-1.4761,9.1274,-0.3036,1.5023,0.499272,0,1698374132.1867,94
-0.4588,-0.6692,-0.1453,0.9894,0.9912,3.4609,3.0729,-0.3594,8.431,2.0623,1.4186,3.9407,0.785,8.9106,-1.6255,0.4254,-0.7336,-1.437,-1.4274,8.9019,-0.3778,1.4088,0.61107,0,1698374132.1967,95
-0.4625,-0.5817,-0.1365,0.9851,0.9023,3.4605,2.9446,-0.3473,8.599,1.8196,2.586,4.741,0.3783,8.6333,-1.3098,0.9604,-0.7777,-2.0375,-1.2719,8.7562,-0.4243,1.3262,0.697906,0,1698374132.2065,96
-0.4654,-0.4804,-0.1281,0.9782,0.7292,3.4278,2.7275,-0.3131,8.7698,1.5389,3.2371,5.6754,0.0658,8.6004,-1.1996,1.5232,-1.1238,-2.7323,-1.0574,8.6689,-0.459,1.2661,0.765355,0,1698374132.2168,97
-0.4673,-0.4039,-0.1204,0.917,0.5011,3.3581,2.4437,-0.2079,9.0036,1.3244,2.5694,4.8178,-0.1164,8.746,-1.32,1.471,-1.639,-3.4339,-0.8721,8.6497,-0.4892,1.1839,0.817744,0,1698374132.2263,98
-0.4687,-0.3468,-0.1132,0.8536,0.3392,3.2332,2.1415,-0.201,9.1212,1.1869,2.2408,3.4171,-0.5119,8.6925,-1.3481,1.1816,-1.9598,-3.8707,-0.7221,8.68,-0.5089,1.1024,0.858437,0,1698374132.2367,98
-0.4695,-0.2749,-0.1066,0.796,0.1632,3.0595,1.7994,-0.2043,9.1739,1.0406,2.393,2.14,-0.9239,8.7031,-1.4044,0.856,-1.9841,-3.9449,-0.5759,8.7327,-0.5149,1.0463,0.890043,0,1698374132.2474,99
-0.4697,-0.1987,-0.1002,0.7282,-0.0017,2.8411,1.4348,-0.1824,9.219,0.8718,2.6534,1.1224,-1.174,8.811,-1.5315,0.6053,-1.8172,-3.7554,-0.4367,8.8113,-0.5144,0.9982,0.914593,0,1698374132.2568,0
-0.4696,-0.1519,-0.0942,0.6971,-0.1382,2.576,1.0699,-0.2655,9.1595,0.8177,2.7322,0.2,-1.3223,8.8521,-1.6163,0.4744,-1.569,-3.3943,-0.2953,8.9015,-0.532,0.9154,0.933662,0,1698374132.2666,1
-0.4695,-0.1153,-0.0888,0.6592,-0.4556,2.3598,0.6926,-0.2936,9.1146,0.7439,2.3698,-0.8369,-1.4869,8.9019,-1.6143,0.295,-1.2689,-2.8923,-0.1353,8.9908,-0.5496,0.8264,0.948473,0,1698374132.2771,2
-0.4693,-0.0873,-0.0835,0.6186,-0.8454,2.1971,0.3417,-0.2214,9.2577,0.5404,1.4075,-1.3705,-1.5508,8.9913,-1.6798,0.1928,-0.9549,-2.2833,0.0334,9.0791,-0.547,0.7371,0.959972,0,1698374132.2863,2
-0.4692,-0.0755,-0.0777,0.5947,-1.2273,2.0229,0.0333,-0.2027,9.3954,0.3016,0.2373,-1.5633,-1.5161,9.0512,-1.7911,0.432,-0.6164,-1.541,0.1755,9.149,-0.5239,0.63,0.968902,0,1698374132.2964,3
-0.4687,-0.0421,-0.072,0.5597,-1.6152,1.8536,-0.2412,-0.0847,9.4873,0.0674,-0.1748,-2.0983,-1.5087,9.1033,-1.9008,0.7883,-0.2222,-0.6176,0.2722,9.1798,-0.4819,0.5577,0.975812,0,1698374132.307,4
-0.4665,0.0529,-0.0664,0.5503,-2.4337,1.9061,-0.526,0.3306,9.7966,-0.2481,0.0872,-2.6775,-1.4868,9.0813,-1.943,1.0223,0.1982,0.4243,0.314,9.1391,-0.4337,0.5252,0.981176,0,1698374132.3164,5
-0.4611,0.2094,-0.0605,0.5945,-3.2842,1.8889,-0.8204,0.6216,10.3134,-0.5332,0.2574,-3.2799,-1.4289,9.0302,-1.8812,0.9493,0.6389,1.4917,0.2989,9.0518,-0.4086,0.4809,0.98534,0,1698374132.3262,6
-0.4524,0.3992,-0.0545,0.6368,-3.3645,1.5791,-1.0739,0.5202,10.1734,-0.624,0.2712,-3.8338,-1.3217,8.9544,-1.858,0.7652,1.0988,2.5314,0.2402,8.9573,-0.4044,0.4323,0.984488,0,1698374132.3369,7
-0.4402,0.6292,-0.0482,0.6553,-3.0826,1.3213,-1.2869,0.4225,9.2828,-0.6031,0.5111,-3.9505,-1.1873,8.8264,-1.8635,0.725,1.5267,3.4207,0.1537,8.8679,-0.4179,0.3807,0.87374,0,1698374132.347,7
-0.4245,0.8396,-0.0404,0.6803,-2.7213,1.1305,-1.4567,0.4207,8.5171,-0.4818,0.9497,-3.4054,-1.0301,8.6951,-1.8574,0.7294,1.8787,3.9598,0.0508,8.8337,-0.4583,0.3451,0.70371,0,1698374132.3573,8
-0.406,1.0889,-0.0308,0.7272,-2.1365,0.9448,-1.5621,0.3535,8.1605,-0.2324,1.5299,-2.3403,-0.8909,8.6332,-1.8398,0.7432,2.1087,4.0871,-0.0667,8.9226,-0.5071,0.3632,0.677125,0,1698374132.3671,9
-0.3859,1.3243,-0.0199,0.7867,-1.3737,0.729,-1.6014,0.0327,7.9604,0.2351,2.3529,-1.3648,-0.8842,8.6431,-1.7951,0.6853,2.2353,3.9967,-0.175,9.0901,-0.5346,0.4315,0.744356,0,1698374132.3768,10
-0.3665,1.4724,-0.0084,0.8273,-0.6892,0.6644,-1.6276,-0.1085,8.0472,0.4643,2.9214,-0.7195,-0.9549,8.7519,-1.7449,0.5242,2.5348,3.9249,-0.2557,9.2441,-0.5361,0.5421,0.801195,0,1698374132.3869,11
-0.3483,1.5691,0.0027,0.8598,-0.109,0.6586,-1.6421,-0.0643,8.6176,0.428,2.9003,-0.4569,-1.0447,8.9499,-1.6735,0.3716,2.7554,3.9261,-0.3294,9.3727,-0.5283,0.6763,0.845563,0,1698374132.3966,11
-0.3327,1.5326,0.0127,0.889,0.121,0.5689,-1.6729,-0.1231,9.6128,0.4414,2.3538,-0.3979,-1.1392,9.1928,-1.6141,0.3301,2.6405,3.9007,-0.4038,9.5195,-0.5,0.78,0.880039,0,1698374132.4067,12
-0.3228,1.3473,0.0215,0.8831,0.1369,0.6023,-1.6065,-0.1951,10.894,0.2557,1.476,-0.3639,-1.2279,9.492,-1.5717,0.4758,2.3697,3.7591,-0.4521,9.7202,-0.4652,0.8531,0.906774,0,1698374132.4173,13
-0.3198,1.056,0.029,0.8357,0.2932,0.5882,-1.3827,-0.2769,11.7316,0.0305,0.5487,-0.5258,-1.3317,9.8242,-1.5195,0.6532,1.8884,3.5486,-0.4531,9.941,-0.4256,0.9467,0.927253,0,1698374132.4272,14
-0.3218,0.7581,0.0351,0.7619,0.4445,0.4622,-1.1127,-0.3789,11.7245,-0.0074,-0.2439,-0.7957,-1.4516,10.1167,-1.4656,0.7677,1.2095,3.6279,-0.3532,10.3258,-0.3245,0.9567,0.76378,0,1698374132.4367,15
-0.3253,0.5163,0.0392,0.6735,0.5636,0.4147,-0.8492,-0.4825,11.4806,0.017,-0.7037,-0.9703,-1.5592,10.3345,-1.4863,0.8713,0.591,3.4125,-0.3242,10.6354,-0.16,0.889,0.416308,0,1698374132.4468,16
-0.3291,0.3092,0.0412,0.567,0.5667,0.4484,-0.619,-0.3673,11.4774,-0.0638,-0.7753,-1.0122,-1.5933,10.4844,-1.6178,0.9793,0.1727,2.7817,-0.479,10.6807,0.0031,0.9674,0.105096,0,1698374132.4563,16
-0.3334,0.143,0.0421,0.4498,0.4703,0.4772,-0.3703,-0.1604,11.7056,-0.0827,-0.5096,-0.98,-1.5704,10.5675,-1.6994,1.0279,-0.0677,2.1698,-0.5856,10.7336,0.0646,1.1919,-0.135892,0,1698374132.4666,17
-0.3383,0.0098,0.0429,0.3573,0.4227,0.5251,-0.0434,-0.1062,11.7171,0.064,-0.1184,-0.9336,-1.5339,10.6873,-1.7112,0.9374,-0.0253,1.1398,-0.7374,10.8398,0.1126,1.2596,-0.239339,0,1698374132.4776,18
-0.3431,-0.0861,0.0439,0.2842,0.3882,0.5632,0.3111,-0.083,11.5889,0.1617,0.108,-0.9172,-1.572,10.9351,-1.7163,0.8131,0.4159,0.0509,-0.9942,10.9967,0.1577,1.2718,-0.322909,0,1698374132.4864,19
-0.346,-0.1122,0.0444,0.2212,0.3742,0.5902,0.6342,0.0625,11.5674,0.2536,0.5429,0.1445,-1.6331,11.327,-1.6888,0.9766,1.2341,-0.7864,-1.1612,11.18,0.1076,1.3931,-0.472955,0,1698374132.497,20
-0.3465,-0.0816,0.0444,0.1772,0.4793,0.6163,0.9883,0.0761,11.5336,0.5415,1.0417,1.7072,-1.7462,11.8297,-1.6089,1.2891,2.2351,-1.6745,-1.2016,11.4429,0.022,1.496,-0.391643,0,1698374132.5063,20
-0.345,-0.0243,0.0442,0.1422,0.4518,0.6306,1.3383,0.1026,11.8385,0.9278,1.0321,2.4881,-1.9832,12.3421,-1.5807,1.4642,3.282,-2.752,-1.1084,11.854,-0.0632,1.6241,-0.112439,0,1698374132.5173,21
-0.3422,0.0457,0.0438,0.0913,0.2268,0.5523,1.697,-0.0055,12.6005,1.5535,0.5576,2.6097,-2.4859,12.9151,-1.5918,1.7194,4.1633,-3.7816,-0.858,12.3689,-0.1342,1.8198,0.125961,0,1698374132.5266,22
-0.3397,0.0653,0.0433,0.031,0.1142,0.3338,2.0626,-0.4958,13.3335,2.134,0.1635,2.0719,-3.0017,13.5077,-1.6284,2.0673,4.6356,-4.3103,-0.4752,12.891,-0.1062,2.1239,0.309112,0,1698374132.5366,23
-0.339,0.0399,0.0407,-0.0869,0.0489,0.2348,2.3764,-0.9798,12.8493,2.3565,1.1109,1.9498,-3.139,13.8055,-1.5355,2.2376,4.3259,-4.1048,-0.1113,13.2188,0.0283,2.3933,0.439291,0,1698374132.5466,24
-0.3395,0.0259,0.0335,-0.3129,-0.1271,0.1962,2.454,-0.6368,12.2794,2.3438,3.0262,2.6697,-2.9628,13.7687,-1.3409,2.3313,3.2169,-3.1962,0.0204,13.2291,0.2448,2.5522,0.547505,0,1698374132.5565,25
-0.3399,0.0298,0.0215,-0.5697,0.0473,-0.005,2.2918,0.0969,12.4349,2.4293,4.4738,3.5323,-2.381,13.3446,-1.271,2.5653,1.5187,-1.7839,-0.2062,12.9517,0.6064,2.7367,0.645979,0,1698374132.5666,25
-0.3397,0.0317,0.0052,-0.872,0.4188,-0.1221,2.0874,0.6328,12.2234,2.604,4.8364,3.9312,-1.4349,12.5234,-1.2245,2.6723,-0.563,-0.4348,-0.6847,12.4606,0.9849,2.9042,0.500241,0,1698374132.5774,26
-0.3386,0.0485,-0.0147,-1.2312,0.4329,-0.0571,1.7753,1.2762,12.083,2.4526,3.5176,3.8568,-0.3037,11.7621,-1.1753,2.3421,-2.0632,0.3337,-1.2012,11.8325,1.2171,2.9021,0.165311,0,1698374132.5866,27
-0.3355,0.1572,-0.0369,-1.4634,0.4311,-0.0032,1.3812,1.7426,11.7919,2.3529,0.7992,3.6225,0.7998,11.1988,-1.229,1.9242,-1.2505,0.5138,-1.5735,11.161,1.1946,2.507,-0.094505,0,1698374132.5969,28
-0.3283,0.3582,-0.0608,-1.6733,0.5567,0.0054,0.8867,1.8424,11.1205,2.3827,-2.0631,2.9174,1.7039,10.6925,-1.4148,1.6194,0.5234,0.2685,-1.8192,10.506,1.1667,2.2821,-0.076945,0,1698374132.6066,29
-0.3164,0.625,-0.0864,-1.9806,0.6184,0.1391,0.2939,1.7606,10.5757,2.2909,-3.798,1.5303,2.3337,10.1542,-1.5529,1.1787,1.5716,-0.3353,-2.1148,9.8054,1.1178,2.3189,0.077745,0,1698374132.6169,30
-0.3015,0.8834,-0.1129,-2.1948,0.6656,0.3469,-0.2757,1.5626,10.2253,2.3043,-3.7489,0.3344,2.6958,9.6532,-1.4675,0.6181,3.1893,-1.0735,-2.3419,9.0939,0.8085,2.0529,0.152819,0,1698374132.6271,30
-0.2855,1.0735,-0.1392,-2.3186,0.5581,0.5645,-0.7079,1.2209,10.1154,2.3489,-2.3804,0.2321,2.8638,9.4191,-1.2333,0.2214,5.211,-1.7066,-2.4006,8.533,0.4419,1.7565,0.275344,0,1698374132.6363,31
-0.271,1.1482,-0.1646,-2.4133,0.3469,0.7301,-0.9004,0.722,10.0695,2.4787,-1.038,0.2584,2.6722,9.2787,-0.948,0.1369,6.5752,-2.1566,-2.2546,8.2636,0.1929,1.6501,0.409315,0,1698374132.6469,32
-0.2589,1.1432,-0.189,-2.4685,0.0652,0.7923,-0.8369,0.1123,10.0542,2.5766,-0.4461,-0.2189,2.0964,9.2814,-0.7199,0.4215,6.774,-2.4439,-1.7278,8.1959,0.0073,1.6131,0.512845,0,1698374132.6563,33
-0.2493,1.1178,-0.2132,-2.4642,-0.2627,0.798,-0.6273,-0.5115,10.1982,2.4284,0.138,-1.2876,1.3389,9.4924,-0.4605,1.1038,5.7227,-2.6663,-0.8832,8.2687,-0.1455,1.6683,0.533532,0,1698374132.6665,34
-0.2422,1.0205,-0.2379,-2.4145,-0.5148,0.713,-0.3683,-1.1708,10.391,2.3898,0.9565,-3.4589,0.3194,9.6721,0.0249,1.7995,3.7974,-2.8551,0.0413,8.5124,-0.0645,1.9017,0.346248,0,1698374132.6772,34
-0.2364,0.9284,-0.2627,-2.3923,-0.4661,0.4313,-0.0682,-1.7943,10.3814,2.5703,2.0209,-5.3782,-0.573,9.9374,0.1803,2.6499,1.6202,-2.9669,0.8702,8.8406,0.192,2.1392,0.055698,0,1698374132.6866,35
-0.2306,0.8889,-0.2873,-2.3995,-0.0729,-0.0142,0.1572,-2.2212,9.3546,2.9819,3.3589,-5.652,-0.9126,10.2564,0.0618,3.5243,-0.2337,-2.9233,1.5106,9.2201,0.4034,2.3222,-0.171727,0,1698374132.6969,36
-0.2239,0.8681,-0.3113,-2.3871,-0.0069,-0.361,0.2104,-2.3312,8.2294,3.1885,4.117,-4.5727,-0.9496,10.4679,0.1267,3.8698,-1.6489,-2.6091,1.9611,9.5857,0.5356,2.4631,-0.356656,0,1698374132.7068,37
-0.2163,0.8398,-0.3345,-2.3655,-0.1747,-0.7591,0.0455,-2.3682,8.3013,3.0352,3.7411,-2.8763,-0.8574,10.4862,0.1003,3.9637,-2.8027,-2.0071,2.2548,9.9309,0.703,2.5779,-0.500295,0,1698374132.7166,38
-0.2078,0.8195,-0.3559,-2.2747,-0.1277,-1.2473,-0.2615,-2.4889,8.4034,2.9252,2.6771,-1.1224,-0.6971,10.3657,-0.0024,4.0027,-3.7133,-1.3129,2.3116,10.2466,0.9725,2.5997,-0.611865,0,1698374132.7264,39
-0.1989,0.8502,-0.3751,-2.0968,-0.0589,-1.6904,-0.6551,-2.4886,8.3121,2.7694,1.4476,0.1931,-0.5164,10.2414,-0.0598,3.7636,-4.6371,-1.1852,1.9169,10.4998,1.2086,2.5749,-0.698524,0,1698374132.7375,39
-0.1896,0.8909,-0.3918,-1.9109,0.0099,-2.0916,-1.1278,-2.2968,8.3896,2.5571,0.3852,0.8374,-0.2763,10.143,-0.164,3.3004,-5.3606,-1.5872,1.3385,10.7601,1.2029,2.7318,-0.765835,0,1698374132.7472,40
-0.1807,0.912,-0.4059,-1.7483,0.129,-2.4501,-1.6143,-2.0852,8.6048,2.3646,-0.1673,1.0506,0.009,10.0711,-0.2767,2.7512,-5.1514,-1.7315,0.7384,10.8369,1.2996,2.5893,-0.818117,0,1698374132.7568,41
-0.1722,0.9279,-0.4177,-1.6024,0.2342,-2.8036,-2.0689,-1.8235,8.9262,2.1817,-0.2905,1.1898,0.2928,10.0152,-0.3306,2.2371,-4.2441,-0.5892,0.043,10.705,1.6179,2.2293,-0.858726,0,1698374132.7664,42
-0.1636,0.947,-0.4281,-1.4418,0.4089,-3.1361,-2.4339,-1.612,9.1325,2.0417,-0.2549,1.3363,0.5576,10.0261,-0.373,1.8488,-3.1626,1.3395,-0.55,10.4752,1.7281,2.0496,-0.890268,0,1698374132.7779,43
-0.1539,0.9574,-0.4389,-1.2895,0.6187,-3.3756,-2.7046,-1.3842,9.247,1.9175,-0.0006,1.4594,0.7343,10.0196,-0.4176,1.6277,-2.1011,2.5818,-1.0173,10.1517,1.6289,1.812,-0.914768,0,1698374132.7874,43
-0.1437,0.9823,-0.449,-1.2028,0.7339,-3.5225,-2.8868,-1.1149,9.2497,1.9071,0.2795,1.6003,0.7829,9.9664,-0.4673,1.624,-1.182,2.8761,-1.2994,9.8485,1.3913,1.5886,-0.933798,0,1698374132.7963,44
-0.134,0.9883,-0.4585,-1.1975,0.8106,-3.6135,-2.9686,-0.9296,9.1568,1.9196,0.106,1.7292,0.738,9.9077,-0.527,1.7578,-0.4766,2.3037,-1.3515,9.5296,1.1171,1.3855,-0.948579,0,1698374132.8068,45
-0.1238,0.9618,-0.4686,-1.1952,0.8472,-3.6476,-2.9708,-0.8073,9.0059,1.8008,-0.2751,1.8678,0.6511,9.7849,-0.5579,1.8966,-0.1844,1.3938,-1.2096,9.2504,0.9029,1.2272,-0.96006,0,1698374132.8172,46
-0.1131,0.9529,-0.4785,-1.1587,0.7793,-3.64,-2.918,-0.7326,8.9555,1.6387,-0.4918,2.0316,0.5564,9.6243,-0.5447,1.8842,-0.3127,0.5507,-0.9127,9.0397,0.7322,1.1678,-0.968977,0,1698374132.8269,47
-0.1028,0.9639,-0.488,-1.1138,0.6184,-3.5753,-2.8028,-0.6407,8.9941,1.5449,-0.5067,2.1938,0.4445,9.4592,-0.4978,1.7592,-0.6076,-0.0011,-0.5236,8.8455,0.6368,1.0867,-0.975904,0,1698374132.8368,48
-0.0933,0.9924,-0.4967,-1.0755,0.3937,-3.4398,-2.6247,-0.5607,9.0462,1.4961,-0.3922,2.376,0.3243,9.2989,-0.4409,1.6444,-0.8963,-0.1442,-0.1234,8.706,0.6591,0.9873,-0.981284,0,1698374132.8466,48
-0.0845,0.9773,-0.5045,-1.0049,0.1492,-3.3056,-2.3969,-0.5839,9.0696,1.3924,-0.2334,2.5985,0.2241,9.1722,-0.383,1.5279,-1.2091,-0.0832,0.2113,8.624,0.7976,0.9294,-0.985462,0,1698374132.8565,49
-0.0762,0.9346,-0.511,-0.9431,-0.0883,-3.2252,-2.1356,-0.6489,8.998,1.1791,-0.1322,2.8702,0.1693,9.0955,-0.3316,1.438,-1.5808,-0.0886,0.4441,8.6002,0.9286,0.8972,-0.988708,0,1698374132.8668,50
-0.0686,0.902,-0.517,-0.8878,-0.2038,-3.2224,-1.8628,-0.8897,8.8483,1.0906,-0.0826,3.2218,0.1626,9.0647,-0.2794,1.4358,-1.9581,-0.3076,0.6027,8.6073,1.0283,0.8808,-0.991229,0,1698374132.8774,51
-0.0614,0.8653,-0.5219,-0.7732,-0.3771,-3.1989,-1.5725,-1.2411,8.5752,1.1547,-0.0602,3.6509,0.1854,9.0532,-0.2359,1.4996,-2.3287,-0.5953,0.7293,8.6025,1.0958,0.9158,-0.993188,0,1698374132.8862,52
-0.0547,0.8218,-0.5249,-0.64,-0.717,-3.0767,-1.2813,-1.4023,8.324,1.1727,-0.0676,3.9901,0.2066,9.0225,-0.1997,1.5772,-2.6677,-0.8222,0.8293,8.5786,1.1081,0.9663,-0.994709,0,1698374132.8968,52
-0.0488,0.7866,-0.5262,-0.5194,-1.1464,-2.9426,-1.0382,-1.4177,8.5934,0.9587,-0.1304,4.1735,0.2162,8.9856,-0.169,1.6308,-2.8578,-0.8987,0.9138,8.5796,1.1327,0.9992,-0.99589,0,1698374132.9069,53
-0.0426,0.7674,-0.5262,-0.4035,-1.5131,-2.8572,-0.8553,-1.385,9.0579,0.6695,-0.5541,4.3705,0.1836,9.0687,-0.0117,1.5323,-2.794,-0.653,0.9752,8.6216,1.174,1.0142,-0.996808,0,1698374132.9172,54
-0.0358,0.7436,-0.5259,-0.3013,-1.7596,-2.8156,-0.6962,-1.3233,9.1891,0.5045,-0.867,4.3386,0.0791,9.1439,0.0648,1.4468,-2.5323,-0.2014,0.9871,8.7097,1.2306,1.0235,-0.99752,0,1698374132.9261,55
-0.0291,0.7103,-0.5257,-0.2285,-1.9468,-2.7917,-0.5087,-1.274,9.1052,0.3974,-1.1007,3.8161,0.0124,9.1194,-0.0696,1.5167,-2.1416,0.1894,0.9341,8.8092,1.2783,1.0641,-0.998074,0,1698374132.9365,56
-0.0225,0.7075,-0.5249,-0.1291,-2.03,-2.7946,-0.3076,-1.2723,8.8733,0.3696,-1.4868,2.9587,-0.0173,9.0788,-0.1409,1.5044,-1.6659,0.3463,0.8078,8.8298,1.297,1.1243,-0.998504,0,1698374132.9472,57
-0.0152,0.7147,-0.5211,0.0464,-2.179,-2.9339,-0.0927,-1.2467,8.9912,0.0941,-1.6579,2.0157,-0.0651,9.0494,-0.197,1.4815,-1.1516,0.2825,0.6542,8.8274,1.3085,1.2122,-0.998838,0,1698374132.9575,57
-0.0081,0.6978,-0.5136,0.2641,-2.2606,-2.8658,0.2311,-1.3727,8.7834,-0.3551,-1.6349,1.0549,-0.1064,8.9878,-0.2465,1.608,-0.6482,0.1076,0.5333,8.7825,1.329,1.3248,-0.999097,0,1698374132.9662,58
-0.0016,0.7138,-0.5024,0.5136,-2.1553,-2.5998,0.6146,-1.4506,7.9178,-0.5797,-1.5344,0.0555,-0.1062,8.8934,-0.2692,1.705,-0.1497,-0.1424,0.3941,8.6645,1.3628,1.3781,-0.999299,0,1698374132.9791,59
0.0069,0.7405,-0.4852,0.7593,-1.8042,-2.5228,0.9228,-1.4036,7.4996,-0.4624,-1.533,-0.7651,-0.0097,8.8105,-0.29,1.7658,0.3533,-0.4397,0.2281,8.5111,1.3829,1.3858,-0.999455,0,1698374132.989,60
0.017,0.7686,-0.465,0.9951,-1.1881,-2.5609,1.203,-1.342,7.098,0.0987,-1.5004,-1.2533,0.1548,8.7437,-0.2484,1.8922,0.7832,-0.7456,0.0685,8.3863,1.4185,1.3038,-0.999577,0,1698374132.9989,61
0.0276,0.8521,-0.4455,1.1745,-0.5467,-2.5991,1.4574,-1.3329,6.656,0.6807,-1.5782,-1.4136,0.3396,8.7453,-0.1651,1.9677,1.0456,-1.0054,-0.0333,8.3803,1.4385,1.1669,-0.999671,0,1698374133.0081,61
0.0384,0.948,-0.4274,1.2579,-0.0043,-2.4199,1.585,-1.2152,6.6368,1.0456,-1.8176,-1.3838,0.5002,8.866,-0.0776,1.921,1.1471,-1.2097,0.0009,8.487,1.3815,1.0903,-0.999745,0,1698374133.0178,62
0.0482,0.9651,-0.4112,1.2908,0.5014,-2.1947,1.599,-0.8754,7.1661,1.4017,-2.0734,-1.3504,0.5977,9.1276,-0.0057,1.8214,1.0453,-1.4247,0.1954,8.7132,1.267,1.046,-0.999802,0,1698374133.0278,63
0.0568,0.9343,-0.3969,1.2721,0.9513,-2.0436,1.5374,-0.6412,8.1006,1.7027,-2.319,-1.3628,0.5984,9.4719,0.0325,1.7074,0.6117,-1.5729,0.5195,9.0495,1.1636,1.0824,-0.999846,0,1698374133.0374,64
0.0634,0.8697,-0.3871,1.1556,1.1985,-1.8138,1.4486,-0.2583,8.8085,1.7675,-2.6597,-1.4236,0.4813,9.8539,0.054,1.6196,-0.1111,-1.3974,0.8794,9.4399,1.0502,1.2074,-0.99988,0,1698374133.0464,65
0.0672,0.7435,-0.3834,0.9003,1.3147,-1.5867,1.2433,0.1527,9.7349,1.6056,-3.134,-1.539,0.2737,10.1868,0.0169,1.6517,-0.8208,-0.7507,1.1905,9.8096,0.896,1.3518,-0.999907,0,1698374133.0567,66
0.0689,0.5989,-0.3842,0.6322,1.3683,-1.4742,0.9637,0.1304,10.7998,1.1846,-3.6643,-1.7147,0.0433,10.4291,-0.1678,1.7825,-1.3576,0.1539,1.3938,10.1075,0.7608,1.4239,-0.999928,0,1698374133.0663,66
0.0696,0.4768,-0.3867,0.4357,1.3042,-1.3204,0.721,-0.1107,11.3682,0.517,-4.2117,-1.9977,-0.1313,10.6279,-0.4202,1.969,-1.5325,0.9102,1.5099,10.3247,0.6929,1.4182,-0.999944,0,1698374133.0767,67
0.0697,0.3746,-0.3894,0.29,1.1155,-1.0364,0.4762,-0.3605,11.5222,0.0635,-4.596,-2.3701,-0.2414,10.9029,-0.7334,2.111,-1.3616,1.2803,1.5967,10.5407,0.6715,1.3151,-0.999956,0,1698374133.0867,68
0.0697,0.2882,-0.3914,0.1955,0.9929,-0.8252,0.2144,-0.6093,11.541,0.0324,-4.701,-2.7113,-0.2979,11.263,-1.0533,2.1598,-1.0464,1.2389,1.6718,10.8073,0.6957,1.231,-0.999966,0,1698374133.0965,69
0.0697,0.2231,-0.3919,0.1482,0.9342,-0.6553,-0.0783,-0.787,11.6258,0.2379,-4.5832,-2.9551,-0.2643,11.5993,-1.2743,2.1351,-0.9423,0.9374,1.8043,11.1235,0.6958,1.301,-0.999974,0,1698374133.1065,70
0.0694,0.1713,-0.3914,0.1193,0.9245,-0.467,-0.3773,-0.9152,11.7452,0.564,-4.3868,-3.0268,-0.1214,11.8691,-1.3938,2.0968,-0.9074,0.3181,1.8552,11.4485,0.7087,1.3954,-0.99998,0,1698374133.1167,70
0.0689,0.1256,-0.3906,0.1241,1.0541,-0.2781,-0.7058,-0.9987,11.9994,0.9448,-4.2002,-2.9427,0.0544,12.0928,-1.3747,2.1009,-0.4499,-0.3743,1.7396,11.7413,0.7642,1.5024,-0.999984,0,1698374133.1268,71
0.0676,0.0497,-0.3878,0.1846,0.7432,0.2103,-1.0812,-0.5397,12.1629,1.4028,-4.1184,-2.7667,0.1781,12.3088,-1.2505,2.1364,0.0042,-0.7324,1.6371,12.0825,0.7159,1.6488,-0.999741,0,1698374133.1375,72
0.0629,-0.0959,-0.3825,0.2785,0.119,0.8402,-1.4775,0.4302,13.0147,1.8038,-4.2687,-2.5149,0.2503,12.5298,-1.188,2.1983,0.155,-0.7548,1.6077,12.4737,0.5984,1.819,-0.968991,0,1698374133.1465,73
0.0543,-0.2971,-0.377,0.3442,0.0851,1.0142,-1.7947,0.8163,14.0131,2.3477,-4.3369,-2.1804,0.3081,12.7548,-1.3423,2.2094,0.0787,-0.675,1.5772,12.7629,0.4719,1.9814,-0.795919,0,1698374133.1564,74
0.0418,-0.5884,-0.3728,0.3433,0.4805,0.9132,-1.9466,0.5851,13.8302,2.988,-3.968,-1.7365,0.4221,12.8669,-1.6388,2.2215,-0.1502,-0.7887,1.447,12.8662,0.3921,2.0861,-0.501874,0,1698374133.1663,75
0.0246,-0.9487,-0.3699,0.3194,0.9308,0.8101,-1.9528,0.2129,12.9373,3.3234,-3.4045,-1.2852,0.6537,12.7686,-1.9771,2.2488,-0.2742,-0.7883,1.1814,12.7668,0.3184,2.2244,-0.20397,0,1698374133.1765,75
0.0041,-1.2224,-0.3676,0.2846,1.3002,0.6755,-1.8546,-0.2516,11.9877,3.4684,-2.776,-0.858,1.0842,12.4192,-2.3331,2.2008,-0.276,-0.7147,0.757,12.3972,0.206,2.1423,0.043132,0,1698374133.1872,76
-0.0196,-1.4308,-0.3654,0.2649,1.4831,0.5249,-1.6624,-0.695,11.3092,3.5448,-1.8727,-0.5244,1.7398,11.8615,-2.5856,2.1996,-0.1197,-0.5502,0.2057,11.8623,0.1337,1.9965,0.221521,0,1698374133.1969,77
-0.0452,-1.715,-0.3622,0.3068,1.5843,0.3347,-1.3691,-1.089,10.6713,3.4474,-0.0863,-0.4213,2.5209,11.1763,-2.65,2.2596,0.1823,-0.0329,-0.3076,11.2673,0.0714,2.085,0.375297,0,1698374133.2071,78
-0.0717,-1.9923,-0.357,0.3957,1.5453,0.1392,-1.0092,-1.3901,9.9948,3.1379,2.507,-0.5849,3.2486,10.4116,-2.4546,2.2496,0.4893,0.0731,-0.7516,10.6386,0.0121,2.026,0.512505,0,1698374133.2162,79
-0.0987,-2.2127,-0.3479,0.5791,1.2968,-0.0306,-0.6052,-1.5199,9.4924,2.8272,4.0859,-0.9736,3.7304,9.7289,-1.9313,2.2078,1.1676,-0.1343,-1.2592,10.2631,0.0183,1.9345,0.621244,0,1698374133.2264,80
-0.1252,-2.3804,-0.3353,0.7903,0.9002,-0.1616,-0.1986,-1.5662,9.3411,2.7613,3.5065,-1.1545,3.7142,9.2916,-1.2884,2.0885,1.9227,-0.7478,-1.6841,9.9428,0.0668,1.7501,0.705729,0,1698374133.2374,80
-0.1518,-2.4089,-0.3215,0.9058,0.5376,-0.2386,0.1488,-1.552,9.4125,2.7239,1.9444,-1.2627,3.1359,8.9145,-0.762,1.9927,2.5536,-1.2645,-1.9264,9.6686,0.2311,1.4705,0.574721,0,1698374133.2464,81
-0.1761,-2.3292,-0.3085,0.9338,0.2303,-0.2754,0.3582,-1.3634,9.5581,2.5931,0.4387,-1.2964,2.3628,8.662,-0.5776,1.8014,2.9286,-1.3666,-2.1163,9.5823,0.4344,1.418,0.251674,0,1698374133.2563,82
-0.198,-2.2346,-0.2979,0.9117,-0.0092,-0.3552,0.4475,-1.0924,9.839,2.7026,-0.9498,-1.1666,1.649,8.6184,-0.6875,1.5155,2.7656,-1.394,-2.1189,9.506,0.3472,1.509,-0.023924,0,1698374133.2664,83
-0.2197,-2.1446,-0.2895,0.8782,-0.1679,-0.4563,0.458,-0.841,9.9949,2.7991,-1.995,-1.1826,0.9403,8.675,-0.7956,1.3599,1.9275,-1.1034,-1.8389,9.5565,0.0541,1.6075,-0.23273,0,1698374133.2773,84
-0.2423,-2.0723,-0.2821,0.8443,-0.298,-0.4948,0.4253,-0.4172,10.3307,2.6232,-2.8648,-1.3825,0.1461,8.821,-0.8063,1.0691,0.1755,-0.6868,-1.358,9.7003,-0.2582,1.6677,-0.21465,0,1698374133.2873,84
-0.2655,-2.0904,-0.2754,0.8382,-0.3284,-0.5469,0.4417,0.0846,10.8934,2.4836,-3.0053,-2.0669,-0.8585,9.0915,-0.8975,1.2562,-1.7504,-0.508,-0.8022,9.8635,-0.6267,1.7615,-0.207725,0,1698374133.2964,85
-0.2879,-2.1728,-0.2681,0.8519,-0.3051,-0.7918,0.5013,0.4511,11.1061,2.4748,-2.6729,-3.4396,-2.0589,9.4238,-1.0365,1.5995,-3.265,-0.4374,-0.3696,10.0464,-0.9132,1.9629,-0.384575,0,1698374133.3068,86
-0.31,-2.2293,-0.2599,0.8493,-0.3015,-0.8994,0.5816,0.7516,11.1253,2.4188,-2.3355,-4.4974,-2.8618,9.691,-1.4555,1.7772,-4.5965,0.1297,-0.0472,10.1722,-1.0817,2.2211,-0.521981,0,1698374133.3165,87
-0.3315,-2.1883,-0.2511,0.8693,-0.2765,-0.7163,0.6901,0.9732,10.8858,2.3491,-1.7147,-4.3048,-2.9485,10.102,-2.1127,2.1299,-5.7288,0.8104,0.1469,10.2141,-1.1955,2.1855,-0.628709,0,1698374133.3263,88
-0.3514,-2.1218,-0.2417,0.9289,-0.1796,-0.476,0.8553,1.1119,10.4234,2.2942,-1.397,-3.252,-2.6512,10.3578,-2.4906,2.3303,-6.4906,1.3554,0.2244,10.1442,-1.2371,1.9648,-0.711607,0,1698374133.3367,89
-0.3692,-2.0807,-0.2321,0.9323,-0.0361,-0.1573,1.102,1.0866,9.8282,2.3122,-1.4604,-2.0252,-2.1228,10.3932,-2.6454,2.2782,-6.9596,1.9116,0.2122,10.0405,-1.0904,1.9008,-0.775997,0,1698374133.3463,89
-0.3847,-2.0053,-0.2226,0.8816,0.1333,0.195,1.384,0.9677,9.3429,2.4163,-1.5394,-1.1455,-1.3962,10.3758,-2.7603,1.9599,-6.9746,2.4919,0.0774,9.9567,-0.7735,1.8399,-0.82601,0,1698374133.3563,90
-0.3983,-1.8848,-0.2129,0.8555,0.3416,0.5156,1.6729,0.7931,9.0497,2.4538,-1.5335,-0.4061,-0.5387,10.2399,-2.8257,1.6744,-6.1042,3.096,-0.3016,9.8478,-0.6066,1.8316,-0.864857,0,1698374133.3664,91
-0.4099,-1.7142,-0.203,0.8922,0.5255,0.7919,1.9416,0.5569,8.9162,2.4212,-1.3133,0.4214,0.25,10.0774,-2.7055,1.4855,-5.0829,3.2926,-0.8347,10.0527,-0.5274,1.6777,-0.89503,0,1698374133.3764,92
-0.4203,-1.5488,-0.193,0.9254,0.659,1.0542,2.1913,0.3679,8.9387,2.2463,-0.9787,1.3096,0.7834,9.8857,-2.455,1.3246,-3.8517,2.7627,-0.8559,10.0092,-0.6102,1.5805,-0.918467,0,1698374133.3866,93
-0.4298,-1.4138,-0.1825,0.9634,0.749,1.2911,2.4022,0.247,8.957,2.0248,-0.8202,2.175,1.0707,9.6844,-2.2609,1.2128,-2.1446,1.0924,-0.9703,9.6847,-0.5962,1.399,-0.729184,0,1698374133.3964,93
-0.4385,-1.2775,-0.1716,1.0223,0.8087,1.4795,2.5447,0.2087,9.0597,1.8517,-0.7822,2.7738,1.1576,9.489,-2.1356,1.1203,-0.3176,-0.3558,-1.5373,9.5748,-0.4202,1.1366,-0.487591,0,1698374133.4073,94
-0.4463,-1.1496,-0.1604,1.0537,0.8585,1.6147,2.6282,0.2442,9.1202,1.6772,-0.7341,2.9459,1.0537,9.2964,-1.9807,1.0235,1.5617,0.0729,-1.7305,9.3753,-0.5095,1.2771,-0.284156,0,1698374133.4166,95
-0.453,-1.052,-0.149,1.0887,0.9603,1.6839,2.6461,0.3027,9.1089,1.551,-0.6711,2.8068,0.8163,9.1267,-1.8469,0.8843,2.7333,0.837,-1.573,9.1912,-0.6861,1.3421,0.002558,0,1698374133.4268,96
-0.4586,-0.9394,-0.1378,1.1019,1.0077,1.7359,2.6089,0.3794,9.0609,1.4223,-0.6127,2.5181,0.5517,8.9901,-1.7578,0.685,2.6702,0.2248,-1.3944,9.0226,-0.7627,1.1761,0.225257,0,1698374133.4366,97
-0.4631,-0.8117,-0.1268,1.1087,0.933,1.7909,2.4795,0.5021,9.0257,1.2904,-0.4831,2.3706,0.2849,8.8581,-1.6756,0.5732,1.821,-1.4081,-1.3341,8.8173,-0.7152,1.0348,0.398232,0,1698374133.4464,98
-0.466,-0.6928,-0.1162,1.119,0.8604,1.8463,2.3014,0.5811,8.8418,1.2049,-0.4429,2.296,0.0444,8.7526,-1.7066,0.5032,1.0174,-2.1608,-1.4031,8.7805,-0.7122,1.09,0.532586,0,1698374133.4566,98
-0.4674,-0.5618,-0.106,1.12,0.7496,1.8911,2.0821,0.6556,8.7384,1.1344,-0.2932,1.8282,-0.1731,8.6592,-1.8028,0.4013,0.3505,-1.4859,-1.2556,8.7947,-0.7233,1.2176,0.63694,0,1698374133.4663,99
-0.4678,-0.4559,-0.096,1.1191,0.6847,1.885,1.8189,0.6688,8.8656,1.0615,0.0216,1.1641,-0.3838,8.589,-1.8415,0.2304,-0.1086,0.0268,-0.876,8.7467,-0.7009,1.2948,0.715402,0,1698374133.4765,0
-0.4676,-0.3581,-0.0863,1.111,0.5441,1.864,1.5386,0.5791,9.1172,0.9226,0.763,0.2161,-0.5824,8.241,-2.1412,0.4802,-0.4328,1.408,-0.5889,8.7508,-0.707,1.2415,0.776348,0,1698374133.4863,1
-0.4674,-0.2697,-0.0769,1.0857,0.2933,1.8162,1.2365,0.5088,9.3744,0.7487,1.7853,-0.6275,-0.7971,7.9341,-2.1749,0.6964,-0.7912,1.8511,-0.3948,8.7879,-0.7064,1.087,0.826221,0,1698374133.4964,2
-0.4669,-0.204,-0.0682,1.0305,-0.0293,1.7467,0.9005,0.504,9.4994,0.5729,2.0349,-0.9522,-0.9545,8.141,-2.0305,0.2817,-0.9707,1.7623,-0.2688,8.8339,-0.7201,1.0038,0.864507,0,1698374133.5063,2
-0.4665,-0.149,-0.06,0.967,-0.3906,1.6603,0.5619,0.5265,9.5267,0.3867,1.6578,-1.1319,-0.9771,8.3651,-2.1809,0.1017,-0.8903,1.6167,-0.2033,8.8586,-0.7212,1.0048,0.893069,0,1698374133.5166,3
-0.4663,-0.1107,-0.0522,0.9098,-0.7769,1.5302,0.2342,0.4634,9.5535,0.2616,1.2481,-1.4155,-0.9938,8.4555,-2.1838,0.2148,-0.7008,1.4183,-0.1941,8.865,-0.688,0.9846,0.911937,0,1698374133.5265,4
-0.465,-0.0554,-0.0448,0.851,-1.6284,1.4393,-0.1022,0.2367,10.4838,-0.2239,0.9461,-1.8608,-1.0562,8.5601,-2.1492,0.2296,-0.5417,1.0359,-0.2049,8.8389,-0.6577,0.9401,0.925012,0,1698374133.5364,5
-0.4612,0.05,-0.0373,0.8037,-2.403,1.2349,-0.3933,-0.1163,11.5101,-1.1244,0.4252,-2.2484,-1.0271,8.6054,-2.1541,0.1968,-0.4489,0.5377,-0.2602,8.7845,-0.6096,0.9037,0.893385,0,1698374133.5462,6
-0.4545,0.2105,-0.0302,0.7597,-2.721,0.9901,-0.685,-0.2036,11.4265,-1.599,-0.1601,-2.5129,-0.944,8.556,-2.1162,0.1545,-0.3759,0.2061,-0.3474,8.7099,-0.5623,0.893,0.715295,0,1698374133.5571,6
-0.444,0.4404,-0.0232,0.7325,-2.9117,0.8766,-1.013,0.0297,10.7947,-1.5165,-0.238,-2.5964,-0.8718,8.4584,-2.0563,0.1887,-0.2876,0.1284,-0.4075,8.6514,-0.5534,0.9125,0.451892,0,1698374133.5667,7
-0.4301,0.7432,-0.016,0.7311,-2.7189,0.8056,-1.2976,0.2436,10.0082,-1.2279,0.0168,-2.4405,-0.7935,8.401,-1.9892,0.2906,-0.1893,0.0025,-0.4448,8.6351,-0.5617,0.8833,0.246645,0,1698374133.5763,8
-0.4132,1.0128,-0.0084,0.7522,-2.1781,0.7879,-1.4991,0.3734,9.1243,-0.733,0.2828,-2.1107,-0.731,8.3965,-1.967,0.3503,-0.0933,-0.3621,-0.4891,8.6881,-0.5663,0.7901,0.106811,0,1698374133.5866,9
-0.3936,1.2203,0.0001,0.7664,-1.7938,0.8772,-1.6283,0.6423,8.1317,-0.0715,0.6326,-1.9321,-0.7566,8.4734,-1.9773,0.2373,0.1211,-0.8098,-0.5346,8.8136,-0.5742,0.7281,0.0169,0,1698374133.5966,9
-0.3728,1.4564,0.0096,0.7909,-1.3325,0.9159,-1.7269,0.9976,7.6334,0.6974,0.97,-1.8615,-0.8524,8.658,-1.9827,0.0282,0.5423,-1.1302,-0.5708,8.9762,-0.5867,0.7181,-0.124406,0,1698374133.6062,10
-0.3526,1.5972,0.0195,0.8747,-0.4467,0.819,-1.766,1.0806,7.5639,1.3884,1.2661,-1.6541,-0.9838,8.9262,-1.9782,0.0211,1.1116,-1.1618,-0.5862,9.1164,-0.6188,0.7067,-0.319137,0,1698374133.6163,11
-0.3351,1.5388,0.0292,0.9299,0.3043,0.7617,-1.7308,1.0142,7.9068,1.6808,1.7654,-1.4053,-1.1439,9.2465,-1.9898,0.1268,1.5895,-1.1378,-0.5699,9.271,-0.651,0.709,-0.471154,0,1698374133.6268,12
-0.3232,1.3415,0.038,0.9408,1.4118,0.6046,-1.6361,0.7311,8.8699,1.3793,2.3884,-1.0612,-1.2742,9.5905,-2.0444,0.2311,1.7979,-1.1771,-0.5224,9.5641,-0.6386,0.7348,-0.541807,0,1698374133.6374,13
-0.3192,1.0342,0.0458,0.9134,2.1936,0.6071,-1.4041,0.2345,9.6663,0.8687,2.8612,-0.3065,-1.2705,9.945,-2.0992,0.377,1.711,-1.1189,-0.4454,9.9213,-0.5533,0.7357,-0.408702,0,1698374133.6469,13
-0.3208,0.7136,0.0524,0.8462,1.9666,1.0649,-1.1216,0.1132,10.1634,0.4796,3.0896,0.7672,-1.1561,10.2712,-2.0351,0.6063,1.3921,-0.8718,-0.3533,10.2148,-0.4243,0.7724,-0.163754,0,1698374133.6567,14
-0.3242,0.4783,0.0576,0.7386,1.7366,1.3395,-0.8996,0.1844,10.4765,0.2458,3.555,1.6421,-1.0876,10.5256,-1.9182,0.8582,1.0788,-0.3688,-0.2757,10.4246,-0.3094,0.8493,0.049843,0,1698374133.6664,15
-0.3279,0.2973,0.061,0.6112,1.5144,1.4011,-0.7008,0.1537,10.6582,0.053,4.415,2.0847,-1.0345,10.6655,-1.9314,1.0293,0.9172,0.2042,-0.253,10.5376,-0.1893,0.9093,0.250022,0,1698374133.6767,16
-0.3316,0.1375,0.063,0.4982,1.2192,1.5547,-0.5438,0.3316,10.9164,-0.1772,5.1997,1.8959,-0.9497,10.7279,-1.9884,1.1018,0.9332,0.7209,-0.2873,10.5855,-0.0814,0.9797,0.417455,0,1698374133.6863,17
-0.3353,0.0175,0.0643,0.3936,0.9506,1.6202,-0.4235,0.5291,11.145,-0.2275,5.713,1.1382,-0.9035,10.7993,-1.999,1.0236,1.1058,1.1222,-0.348,10.6182,-0.0462,1.0456,0.54752,0,1698374133.6964,17
-0.3392,-0.0648,0.0655,0.3324,0.6654,1.7112,-0.3071,0.6226,11.321,-0.2665,6.294,0.1713,-0.9102,10.8792,-1.9789,0.871,1.3209,1.3947,-0.3858,10.6671,-0.0916,1.0792,0.648545,0,1698374133.7068,18
-0.3424,-0.0939,0.0667,0.2829,0.425,1.8697,-0.2252,0.7589,11.4127,-0.3246,6.8177,-0.9376,-0.981,10.9775,-2.0288,0.6645,1.5032,1.4905,-0.3581,10.7618,-0.2255,1.1162,0.727015,0,1698374133.7162,19
-0.3435,-0.0791,0.0675,0.2345,0.3415,2.0277,-0.1378,0.829,11.3608,-0.1218,6.8939,-1.9779,-1.1315,11.1899,-2.0761,0.3699,1.7258,1.3135,-0.2564,10.9502,-0.3661,1.189,0.787964,0,1698374133.7262,20
-0.3425,-0.0338,0.0678,0.1926,0.4036,2.1479,0.0256,0.7871,11.4437,0.3793,6.6497,-2.7024,-1.3659,11.5001,-2.1035,0.1844,2.0794,0.8232,-0.0761,11.2949,-0.4406,1.2964,0.835306,0,1698374133.7366,20
-0.3403,0.0277,0.0677,0.1309,0.4876,2.1611,0.236,0.6576,11.7748,1.2049,6.4872,-3.0904,-1.7747,12.1494,-2.0734,0.1526,2.6514,0.0419,0.1867,11.8272,-0.4909,1.4402,0.87207,0,1698374133.7464,21
-0.3379,0.0693,0.0673,0.0447,0.4472,1.8595,0.535,0.2224,12.4337,2.0314,7.6248,-2.4459,-2.3436,13.0428,-1.9771,0.3377,3.4102,-0.8633,0.5332,12.4502,-0.4872,1.7048,0.891073,0,1698374133.7563,22
-0.3368,0.0676,0.0643,-0.0831,0.7992,1.5289,0.9155,-0.3947,12.5398,2.7097,10.546,0.053,-2.7923,13.6564,-1.8595,1.1767,3.9834,-1.5348,0.9105,12.9983,-0.3954,2.1263,0.905838,0,1698374133.7671,23
-0.3371,0.0437,0.0559,-0.3069,1.3914,1.5082,1.3388,-0.6163,11.1153,3.4518,14.2688,3.3669,-2.9167,13.8264,-1.4892,2.2987,3.8798,-1.6209,1.1601,13.2773,-0.1725,2.5138,0.926851,0,1698374133.7763,24
-0.3373,0.0284,0.0421,-0.6511,1.7824,1.5466,1.8116,-0.773,9.7276,4.2743,16.4505,5.8582,-2.6904,13.6235,-1.0294,2.8928,3.0579,-1.197,1.0932,13.1887,0.231,2.765,0.936212,0,1698374133.7861,24
-0.3372,0.0295,0.0236,-1.0118,2.0656,1.6012,2.2096,-0.8498,9.415,4.6809,15.4829,6.9326,-2.0314,13.2551,-0.7639,3.1928,2.1051,-0.8438,0.6254,12.8596,0.7718,2.9666,0.943196,0,1698374133.797,25
-0.3366,0.0472,0.0019,-1.3426,1.8458,1.8362,2.4616,-0.4959,9.6456,4.3828,12.4791,6.9584,-1.1488,12.5666,-0.4949,3.2336,1.4937,-1.1967,-0.0967,12.3787,1.2572,3.1507,0.955572,0,1698374133.8064,26
-0.334,0.1436,-0.0221,-1.6704,1.3547,2.1755,2.5287,0.0462,9.8006,4.1096,7.3848,6.2371,-0.3611,11.581,-0.212,3.0035,1.6485,-2.19,-0.8161,11.8164,1.5213,3.1881,0.965481,0,1698374133.8164,27
-0.3273,0.3358,-0.0481,-1.9643,1.1429,2.3198,2.383,0.4656,9.3116,4.217,0.5195,4.7956,0.3156,10.719,-0.1918,2.6034,2.3849,-3.2922,-1.2241,11.1988,1.5624,3.2196,0.973188,0,1698374133.8261,28
-0.3163,0.5547,-0.0757,-2.1421,1.1555,2.4088,2.097,0.7449,8.6252,4.2636,-5.1147,3.2806,0.8906,10.1512,-0.4835,2.028,3.3157,-4.5199,-1.5103,10.4814,1.5118,3.0706,0.979174,0,1698374133.8367,28
-0.3026,0.7783,-0.1046,-2.2514,1.2259,2.5607,1.7563,0.9566,8.2124,4.2126,-7.9229,1.878,1.3594,9.7372,-0.7927,1.4937,4.0463,-5.574,-2.0019,9.7227,1.5665,2.7381,0.983824,0,1698374133.8462,29
-0.2879,0.9444,-0.1335,-2.3468,1.0615,2.5005,1.4269,1.0479,8.2092,4.077,-7.9575,0.2755,1.8181,9.4699,-0.9687,1.0482,4.8677,-6.0817,-2.4254,9.2857,1.3291,2.8161,0.987436,0,1698374133.8567,30
-0.2739,1.017,-0.1615,-2.3758,0.6177,2.4955,1.1608,1.0011,8.5026,3.875,-5.9485,-0.8686,2.1709,9.3751,-1.1901,0.633,6.7099,-5.1834,-2.6786,9.0495,0.8233,2.7852,0.990241,0,1698374133.8661,31
-0.2616,1.0307,-0.1888,-2.4244,0.2261,2.6194,0.9917,0.6728,8.9259,3.5863,-3.9518,-1.1198,2.4357,9.314,-1.302,0.2661,8.9486,-2.4233,-2.5557,8.8066,0.3892,2.5528,0.99242,0,1698374133.877,31
-0.2514,0.9958,-0.216,-2.4936,-0.0124,2.6117,0.862,0.1099,9.6011,3.1191,-3.7183,-0.992,2.7222,9.3887,-1.065,0.0778,10.5188,0.5497,-1.8961,8.714,0.0691,2.3792,0.969659,0,1698374133.8868,32
-0.2434,0.9186,-0.2428,-2.5611,-0.2199,2.5529,0.7391,-0.6277,10.1546,2.7589,-4.2545,-0.9532,2.7071,9.606,-0.4949,0.2294,10.8504,2.726,-1.0275,8.805,0.1086,2.1741,0.890912,0,1698374133.8962,33
-0.2375,0.8363,-0.2688,-2.6318,-0.3537,2.3956,0.6411,-1.3886,10.3454,2.5778,-3.7924,-1.5366,2.1857,9.848,0.1299,0.7175,9.7624,3.8122,-0.1748,9.1064,0.3392,2.2082,0.853732,0,1698374133.9065,34
-0.2322,0.7887,-0.2932,-2.6567,-0.3333,2.1439,0.5317,-1.9047,9.8759,2.641,-2.064,-3.1888,1.5387,10.1632,0.5645,1.6299,7.5334,3.692,0.6171,9.4362,0.602,2.3893,0.885921,0,1698374133.9165,35
-0.2263,0.772,-0.3163,-2.5756,-0.3745,1.8231,0.3445,-2.2307,9.3423,2.742,1.3723,-5.9293,0.9254,10.4019,0.5614,3.5587,4.8783,2.8156,1.3046,9.66,0.8788,2.5414,0.91139,0,1698374133.927,35
-0.2192,0.7674,-0.338,-2.4828,-0.4184,1.3933,0.0611,-2.6251,9.5981,2.618,4.1811,-8.0086,0.3348,10.5194,0.3947,5.0202,2.5748,1.8195,1.7679,9.8237,1.1262,2.6822,0.829374,0,1698374133.9364,36
-0.211,0.7979,-0.3578,-2.4141,-0.1927,0.9282,-0.0611,-2.9646,9.424,2.4141,4.373,-8.1697,-0.0634,10.5131,0.3444,4.9361,0.5683,0.8899,1.8559,9.9711,1.4429,2.5781,0.5424,0,1698374133.9467,37
-0.2016,0.8612,-0.3753,-2.2656,0.1412,0.428,-0.2625,-3.0762,8.781,2.2089,3.761,-6.9434,-0.2347,10.3522,0.2387,4.395,-0.6357,-0.0862,1.62,10.0418,1.6487,2.2353,0.198028,0,1698374133.9565,38
-0.1915,0.9006,-0.3904,-2.0965,0.5071,-0.0891,-0.7138,-2.9875,8.2601,2.0752,3.5763,-4.952,-0.1819,10.1697,0.1045,3.9814,-0.7647,-0.9815,1.0781,10.078,1.7934,1.9455,-0.069456,0,1698374133.9664,39
-0.1812,0.908,-0.4031,-1.8896,0.9497,-0.6076,-1.107,-2.8625,7.9686,2.0531,3.4021,-3.1871,-0.0148,9.9753,-0.0446,3.6046,-0.2803,-1.3667,0.3162,10.0637,1.9576,1.8035,-0.277219,0,1698374133.9767,39
-0.1707,0.9219,-0.4134,-1.6677,1.3975,-1.1142,-1.4277,-2.709,7.948,2.045,2.6891,-1.6765,0.1695,9.854,-0.1003,3.008,0.6277,-1.1512,-0.3855,9.9603,2.0141,1.7376,-0.438391,0,1698374133.9864,40
-0.1602,0.9714,-0.4218,-1.4787,1.7437,-1.5401,-1.6614,-2.4391,7.9234,2.0441,1.8156,-0.1061,0.3084,9.8249,-0.1244,2.403,1.2401,-1.2301,-0.8734,9.8308,1.9334,1.5998,-0.558671,0,1698374133.9977,41
-0.149,1.0332,-0.4299,-1.3033,1.9938,-1.9366,-1.8132,-2.247,8.1914,1.9373,1.0605,1.1436,0.3712,9.7973,-0.174,1.9955,1.3467,-1.9441,-1.099,9.7016,1.6887,1.4209,-0.651785,0,1698374134.0077,42
-0.1374,1.0827,-0.438,-1.1953,2.171,-2.2556,-1.9259,-2.0968,8.6486,1.6512,0.5899,1.9753,0.385,9.7419,-0.2182,1.8106,1.1629,-2.7689,-1.0765,9.5326,1.4661,1.2253,-0.729006,0,1698374134.0173,43
-0.126,1.1176,-0.4451,-1.1065,2.1254,-2.4693,-2.0024,-1.8321,9.1259,1.3063,0.532,2.5668,0.3735,9.6711,-0.2213,1.8115,0.8411,-3.1632,-0.8605,9.3436,1.3214,1.0736,-0.7895,0,1698374134.0269,43
-0.1148,1.1189,-0.4515,-1.0087,2.0065,-2.5978,-2.0124,-1.593,9.4007,1.0868,0.7265,3.0697,0.3365,9.5658,-0.2146,1.9085,0.5289,-3.0306,-0.5682,9.1757,1.2292,0.9873,-0.836498,0,1698374134.0363,44
-0.1033,1.1254,-0.4583,-0.9358,1.9474,-2.7087,-1.9921,-1.418,9.4853,1.0523,1.0412,3.5242,0.266,9.4357,-0.2235,1.9568,0.3095,-2.5714,-0.2782,9.0044,1.1914,0.9021,-0.873003,0,1698374134.0465,45
-0.0919,1.1248,-0.465,-0.8548,1.7787,-2.8067,-1.9507,-1.1968,9.4951,1.0576,1.3768,3.8917,0.1635,9.2953,-0.2019,1.9697,0.2276,-1.8961,-0.0265,8.8537,1.1947,0.7851,-0.901358,0,1698374134.0575,46
-0.0804,1.0992,-0.4712,-0.7714,1.3853,-2.8232,-1.8751,-1.0101,9.7043,0.9233,1.4653,4.1312,0.0643,9.1927,-0.1968,1.9578,0.2399,-1.1337,0.1971,8.7558,1.2005,0.6713,-0.923382,0,1698374134.0671,46
-0.0697,1.1123,-0.4769,-0.7048,0.9612,-2.8045,-1.7814,-0.9211,10.0878,0.7056,1.4037,4.226,-0.0187,9.1258,-0.1958,1.8748,0.2554,-0.476,0.4032,8.7205,1.2068,0.5813,-0.940488,0,1698374134.0768,47
-0.06,1.1286,-0.4816,-0.6278,0.458,-2.7201,-1.6584,-0.8309,10.1671,0.5264,1.3771,4.2502,-0.1088,9.1049,-0.186,1.746,0.1414,-0.1014,0.5905,8.7342,1.2241,0.537,-0.953775,0,1698374134.0868,48
-0.0505,1.0955,-0.4851,-0.5326,-0.1971,-2.5548,-1.4674,-0.6906,10.0846,0.4976,1.3122,4.2767,-0.1941,9.1381,-0.1941,1.624,-0.1032,0.0685,0.7513,8.7758,1.2329,0.5112,-0.964096,0,1698374134.0962,49
-0.0411,1.0515,-0.4876,-0.4469,-0.7451,-2.4597,-1.2986,-0.5115,10.2282,0.4322,1.1425,4.2572,-0.2782,9.2029,-0.1881,1.5621,-0.5803,0.3539,0.8967,8.8346,1.2376,0.4992,-0.972112,0,1698374134.1064,50
-0.0318,1.0366,-0.4892,-0.3833,-1.1145,-2.4293,-1.153,-0.427,10.3373,0.2654,0.8708,4.1193,-0.387,9.2794,-0.1773,1.5322,-0.933,0.988,1.0548,8.9153,1.2509,0.5101,-0.978339,0,1698374134.1167,50
-0.0226,1.0384,-0.4901,-0.3175,-1.536,-2.3749,-0.9802,-0.4602,10.197,0.2475,0.5346,3.8716,-0.5354,9.3506,-0.1742,1.5049,-1.0323,1.9177,1.1861,8.9908,1.2965,0.5181,-0.983175,0,1698374134.1264,51
-0.0136,1.0431,-0.4903,-0.2484,-1.9802,-2.3413,-0.806,-0.5659,10.0522,0.324,0.0127,3.4202,-0.7402,9.3965,-0.2309,1.479,-1.1137,2.9304,1.2549,9.0551,1.3496,0.4781,-0.986932,0,1698374134.1371,52
-0.005,1.031,-0.4902,-0.1932,-2.4207,-2.2853,-0.6178,-0.7143,9.9724,0.3511,-0.374,2.9767,-0.9461,9.3838,-0.2598,1.5999,-1.078,3.8371,1.2972,9.1224,1.4394,0.4162,-0.989849,0,1698374134.147,53
0.003,1.0015,-0.4901,-0.1278,-2.8233,-2.1992,-0.2978,-1.3128,9.2705,0.1452,-0.9214,2.552,-1.0362,9.3448,-0.2877,1.7192,-0.9233,4.4034,1.3173,9.1329,1.548,0.3639,-0.992115,0,1698374134.1565,54
0.0102,0.9626,-0.4899,-0.0901,-3.1275,-2.1741,0.0317,-1.8715,8.4083,0.0999,-1.8477,1.7177,-1.0644,9.3212,-0.3472,1.5799,-0.6847,4.5501,1.2656,9.0468,1.5911,0.3474,-0.993875,0,1698374134.1661,54
0.0165,0.8867,-0.4892,-0.0639,-3.6058,-2.2049,0.1598,-1.7038,8.6033,-0.0146,-2.6703,0.8882,-1.0582,9.3005,-0.3508,1.3301,-0.3597,4.3265,1.1223,8.9264,1.6044,0.3885,-0.995242,0,1698374134.1767,55
0.0227,0.7992,-0.4865,0.0223,-4.0481,-2.164,0.2653,-1.626,9.0621,-0.2479,-3.2266,0.3172,-1.0099,9.2643,-0.3387,1.2023,0.0454,3.853,0.942,8.8295,1.5833,0.4287,-0.996303,0,1698374134.1861,56
0.0277,0.7023,-0.4805,0.1788,-4.0456,-2.2695,0.4921,-2.003,8.8521,-0.1194,-3.2863,-0.1213,-0.9434,9.1919,-0.2825,1.2145,0.3898,3.2891,0.7824,8.775,1.5681,0.5,-0.997123,0,1698374134.1962,57
0.0307,0.5971,-0.4718,0.3667,-3.9099,-2.2721,0.796,-2.2138,8.1598,0.0639,-2.9338,-0.3203,-0.8125,9.1808,-0.2033,1.332,0.642,2.6159,0.6566,8.7597,1.6022,0.6038,-0.997743,0,1698374134.2063,57
0.0327,0.5151,-0.4609,0.567,-3.8633,-2.1021,1.0679,-2.1258,7.5622,0.2851,-2.2621,-0.3702,-0.641,9.2302,-0.0932,1.4635,0.7552,1.7616,0.5701,8.8058,1.668,0.7013,-0.998213,0,1698374134.2164,58
0.0347,0.449,-0.4487,0.7654,-3.6643,-2.0833,1.2698,-1.9011,7.5166,0.5325,-1.5477,-0.2955,-0.4413,9.2805,0.0202,1.4984,0.5244,0.7571,0.5582,8.9512,1.776,0.793,-0.998596,0,1698374134.227,59
0.0368,0.3972,-0.4365,0.887,-3.1399,-2.0491,1.4495,-1.6127,7.6025,0.8038,-1.0525,-0.1123,-0.2282,9.3934,0.1277,1.5469,-0.0247,-0.2515,0.6155,9.1507,1.842,0.9193,-0.998908,0,1698374134.2366,60
0.0392,0.3764,-0.4251,0.9237,-2.5247,-1.899,1.5807,-1.2574,7.5313,1.208,-0.8017,0.0284,-0.0422,9.5463,0.2348,1.5997,-0.6608,-1.086,0.6753,9.3565,1.8292,1.0909,-0.999152,0,1698374134.2465,61
0.0415,0.3535,-0.4157,0.8986,-2.0553,-1.6427,1.57,-0.7286,8.0747,1.5009,-0.9537,0.0635,0.0869,9.7098,0.234,1.6082,-1.0671,-1.6857,0.7269,9.5751,1.7521,1.2055,-0.999341,0,1698374134.2574,61
0.0435,0.3031,-0.4087,0.8194,-1.6515,-1.3865,1.4365,-0.1961,8.9656,1.479,-1.3768,0.0473,0.1522,9.9043,0.0883,1.6663,-1.1433,-2.0219,0.7755,9.8061,1.6273,1.2565,-0.999488,0,1698374134.2663,62
0.0449,0.2587,-0.4036,0.7204,-1.2689,-1.1295,1.2501,0.2575,9.6316,1.2966,-1.985,-0.0573,0.1808,10.1591,-0.1684,1.7414,-1.1266,-2.0768,0.797,10.0254,1.4867,1.3141,-0.999603,0,1698374134.2767,63
0.0459,0.226,-0.4007,0.6081,-0.866,-0.8464,1.0278,0.5651,9.991,1.126,-2.8724,-0.2247,0.1987,10.4126,-0.4605,1.8123,-1.1221,-1.9345,0.7873,10.1917,1.3233,1.3366,-0.999691,0,1698374134.287,64
0.0466,0.202,-0.4002,0.4723,-0.4491,-0.612,0.7912,0.677,10.0395,0.9366,-3.6562,-0.3862,0.2212,10.5662,-0.7211,1.9056,-1.1826,-1.6962,0.7227,10.3043,1.1675,1.2926,-0.99976,0,1698374134.2965,65
0.0469,0.1609,-0.4009,0.3506,-0.156,-0.43,0.5528,0.559,10.0876,0.7429,-4.0231,-0.5645,0.277,10.6489,-0.9481,1.9145,-1.1861,-1.4702,0.5848,10.3629,1.0142,1.1975,-0.999814,0,1698374134.3077,65
0.0469,0.1201,-0.4013,0.2692,0.0453,-0.2664,0.2876,0.207,10.2674,0.6671,-3.9501,-0.6765,0.4226,10.7885,-1.1493,1.8152,-0.9877,-1.316,0.4384,10.4084,0.8547,1.0788,-0.999855,0,1698374134.3173,66
0.0469,0.0978,-0.4013,0.2045,0.2493,-0.159,-0.0249,-0.2332,10.5038,0.6651,-3.5951,-0.6783,0.6524,11.057,-1.2532,1.6764,-0.6725,-1.243,0.3878,10.5685,0.7287,0.9825,-0.999888,0,1698374134.3271,67
0.0468,0.0653,-0.4011,0.1544,0.3652,-0.1003,-0.1441,-0.6074,10.7874,0.6369,-3.2172,-0.5647,0.9187,11.3621,-1.2374,1.5972,-0.4354,-1.2307,0.4703,10.8453,0.6889,0.9903,-0.999912,0,1698374134.3365,68
0.0466,0.0403,-0.4002,0.1538,0.4373,-0.0802,-0.3167,-0.9628,11.0782,0.6165,-2.7915,-0.3282,1.1656,11.559,-1.1615,1.6551,-0.2197,-1.181,0.5924,11.0734,0.7293,1.0998,-0.999916,0,1698374134.3474,69
0.0463,0.0292,-0.3972,0.2359,-0.0427,0.1655,-0.6801,-1.0905,11.6922,0.6905,-2.414,-0.0601,1.3182,11.6143,-1.0285,1.8038,0.0876,-0.9533,0.6855,11.2165,0.7713,1.2095,-0.886027,0,1698374134.3568,69
0.0457,-0.0127,-0.3911,0.3551,-0.7598,0.4432,-0.9623,-0.9689,12.7908,0.4893,-2.3875,0.0894,1.3242,11.6464,-0.853,1.965,0.1619,-0.4713,0.8089,11.3882,0.7703,1.3198,-0.684495,0,1698374134.3666,70
0.0434,-0.0878,-0.3824,0.4929,-0.664,0.3053,-1.1585,-1.1928,13.798,0.2683,-2.7734,0.0589,1.1712,11.7827,-0.7047,2.0491,-0.1895,0.2175,1.2278,11.6738,0.6982,1.4102,-0.592555,0,1698374134.3763,71
0.0385,-0.1791,-0.3731,0.6285,-0.086,0.107,-1.2223,-1.5663,13.8138,0.6136,-3.2308,-0.1233,0.928,11.9872,-0.7304,2.0286,-0.7548,0.8991,1.7185,11.9855,0.5604,1.6703,-0.633463,0,1698374134.3871,72
0.0306,-0.3539,-0.3652,0.6526,0.4405,-0.0454,-1.2607,-1.6643,13.3041,1.2784,-3.293,-0.4719,0.6896,12.1613,-0.9484,2.0175,-1.3983,0.924,1.8056,12.2557,0.5153,1.9321,-0.714533,0,1698374134.3966,72
0.0197,-0.5728,-0.36,0.5753,0.7259,-0.2344,-1.2983,-1.6353,13.0825,1.7512,-3.0004,-0.9583,0.5053,12.2158,-1.1586,2.0567,-1.6783,0.7082,1.6193,12.4016,0.5386,2.0251,-0.778269,0,1698374134.4068,73
0.0056,-0.8389,-0.3589,0.4501,0.9058,-0.4068,-1.3308,-1.5297,12.8328,1.9792,-2.6197,-1.3616,0.4184,12.1074,-1.3456,2.1641,-1.3811,1.0425,1.288,12.3068,0.5538,2.123,-0.827775,0,1698374134.4176,74
-0.0124,-1.1556,-0.3601,0.3152,1.1376,-0.585,-1.3331,-1.4838,12.0643,2.1894,-2.0777,-1.5428,0.4822,11.7968,-1.6208,2.3411,-0.8826,1.591,0.7997,11.9819,0.5861,2.1352,-0.866228,0,1698374134.4273,75
-0.0328,-1.407,-0.3605,0.2515,1.2682,-0.7047,-1.2795,-1.5467,11.0594,2.3196,-1.1327,-1.5762,0.7584,11.2667,-1.899,2.4925,-0.3694,1.8287,0.2832,11.4526,0.5511,2.1136,-0.894803,0,1698374134.4369,76
-0.0545,-1.581,-0.3587,0.2808,1.0441,-0.7329,-1.2098,-1.3925,10.373,2.1881,0.2848,-1.6064,1.2072,10.6036,-2.0175,2.556,0.0259,1.4637,-0.233,10.7887,0.5616,1.9673,-0.79877,0,1698374134.4464,76
-0.0782,-1.7467,-0.3534,0.3989,0.6349,-0.806,-1.1343,-1.0239,10.1315,2.024,1.6235,-1.8105,1.659,9.9013,-1.9564,2.6108,0.4531,0.6604,-0.766,10.1241,0.647,1.7595,-0.516952,0,1698374134.4565,77
-0.1036,-1.9544,-0.344,0.5716,0.4499,-1.0408,-0.9495,-0.9209,9.7284,2.0489,2.2603,-1.8608,1.894,9.3378,-1.5812,2.7781,1.0806,-0.3803,-1.2491,9.5561,0.7141,1.6171,-0.194291,0,1698374134.4668,78
-0.1297,-2.1471,-0.3313,0.7612,0.3395,-1.2351,-0.6603,-0.8877,8.9618,2.0907,1.9769,-1.5386,1.8873,8.8326,-1.0469,2.8605,1.7947,-1.273,-1.6388,9.0938,0.79,1.4944,0.070824,0,1698374134.4769,79
-0.1558,-2.3151,-0.3181,0.9195,0.3415,-1.4645,-0.4416,-0.7814,8.6427,2.1787,0.8841,-1.0377,1.7552,8.4198,-0.7452,2.7256,2.3425,-1.5147,-1.8963,8.8039,0.8781,1.4767,0.275317,0,1698374134.4866,80
-0.1805,-2.3666,-0.3064,0.9628,0.4258,-1.7483,-0.3578,-0.8165,8.5713,2.423,-0.5484,-0.6112,1.4907,8.2462,-0.641,2.5618,2.4399,-1.4153,-1.9702,8.6322,0.8653,1.4038,0.377068,0,1698374134.4964,80
-0.2035,-2.28,-0.2971,0.9317,0.3991,-1.9832,-0.4086,-0.8959,8.6676,2.6638,-1.714,-0.4631,1.1088,8.1974,-0.6534,2.3857,2.0921,-1.6014,-1.8452,8.5419,0.6605,1.27,0.344899,0,1698374134.5067,81
-0.2257,-2.1845,-0.29,0.8593,0.3239,-1.9194,-0.5793,-0.8375,8.9378,2.762,-2.546,-0.4691,0.6417,8.3017,-0.7386,2.131,1.3651,-1.7084,-1.547,8.5917,0.4202,1.3569,0.217583,0,1698374134.5165,82
-0.2478,-2.2077,-0.2845,0.7602,0.5348,-1.8528,-0.8346,-0.616,9.3289,2.7892,-3.0516,-0.5445,0.071,8.5105,-0.8615,2.0342,0.0437,-2.0566,-1.1578,8.7771,0.1202,1.4174,0.028028,0,1698374134.5265,83
-0.2703,-2.3353,-0.2796,0.7113,0.7293,-2.0525,-1.084,-0.4058,9.6634,2.7975,-3.1844,-0.9414,-0.5035,8.7718,-0.997,2.1352,-1.8987,-2.4106,-0.7106,9.1612,-0.1887,1.5668,-0.182799,0,1698374134.537,83
-0.2936,-2.3498,-0.2736,0.7152,0.5224,-2.0891,-1.2693,0.0186,9.9021,2.736,-3.3208,-1.6033,-1.0052,9.2597,-1.094,2.1363,-4.1582,-1.8708,-0.1527,9.6645,-0.4089,1.959,-0.365256,0,1698374134.5462,84
-0.3168,-2.2678,-0.2663,0.7184,0.2671,-2.0212,-1.604,0.5744,10.2524,2.723,-3.0391,-2.0109,-1.5524,9.8388,-1.3281,2.3011,-6.5703,-0.8167,0.4306,10.1102,-0.6211,2.2991,-0.506976,0,1698374134.5566,85
