right_q,right_q_dot,left_q,left_q_dot,pelv_ang_1,pelv_ang_2,pelv_ang_3,pelv_acc_1,pelv_acc_1,pelv_acc_3,right_chest_ang_x,right_chest_ang_y,right_chest_ang_z,right_chest_acc_x,right_chest_acc_y,right_chest_acc_z,left_chest_ang_x,left_chest_ang_y,left_chest_ang_z,left_chest_acc_x,left_chest_acc_y,left_chest_acc_z,,,,Label
-0.557,-0.7904,0.0398,1.2453,-0.6708,3.0092,1.0056,1.4567,7.9772,1.5657,0.6761,0.7938,0.0876,-6.5813,2.6068,0.2164,1.166,0.5586,0.0573,-6.9035,0.8578,0.7272,0.998559,0,1698375258.1304,0
-0.5546,-0.5431,0.0508,1.2216,-0.7526,3.2408,0.5362,1.2883,7.8298,1.2968,0.5231,0.5915,0.1238,-6.8607,2.6401,0.2397,1.267,0.6153,-0.0199,-7.0855,0.7744,0.8289,0.99888,0,1698375258.1403,1
-0.5493,-0.2753,0.0622,1.2235,-0.932,3.4753,0.0838,1.1124,7.8525,0.8023,0.417,0.379,0.14,-7.1063,2.6954,0.2635,1.2859,0.6865,-0.0781,-7.3047,0.6893,0.9256,0.99913,0,1698375258.1504,2
-0.5393,0.099,0.0739,1.261,-1.1173,3.6285,-0.3911,0.8477,7.6929,0.5042,0.3014,0.1765,0.1398,-7.3283,2.7688,0.2648,1.2954,0.6958,-0.0509,-7.6083,0.6206,1.0586,0.999325,0,1698375258.1604,3
-0.524,0.4766,0.0859,1.2719,-1.2502,3.704,-0.8708,0.5713,7.5526,0.4881,0.1443,-0.0721,0.1021,-7.5745,2.8461,0.2773,1.2286,0.8377,0.0469,-7.9326,0.6254,1.2234,0.999474,0,1698375258.1702,4
-0.5043,0.809,0.0985,1.2862,-0.9435,3.7388,-1.2937,0.3195,7.4479,0.564,-0.0919,-0.3716,0.0524,-7.8893,2.9404,0.3565,0.8751,1.0579,0.1962,-8.2195,0.7123,1.3779,0.999583,0,1698375258.1804,5
-0.4816,1.2157,0.1118,1.3072,-0.3517,3.7803,-1.6306,0.2468,7.1124,0.6816,-0.3598,-0.6895,0.0564,-8.2331,3.0639,0.4894,0.4088,1.2493,0.3479,-8.4977,0.8659,1.5415,0.99966,0,1698375258.1906,6
-0.4576,1.5313,0.1259,1.3431,0.1728,3.8023,-1.854,0.2307,7.1945,0.93,-0.5584,-1.0191,0.1124,-8.5858,3.1764,0.6653,-0.1077,1.4108,0.4598,-8.8113,1.0052,1.7511,0.999429,0,1698375258.201,7
-0.4335,1.7284,0.1401,1.3779,0.8469,3.8288,-1.9415,0.0827,7.4496,1.0244,-0.6693,-1.3049,0.1763,-8.9591,3.3118,0.8172,-0.7074,1.411,0.5203,-9.2029,1.11,1.9682,0.991879,0,1698375258.2108,8
-0.4118,1.7648,0.1537,1.3564,1.4617,3.817,-1.9702,-0.1656,8.0348,0.8734,-0.7341,-1.5132,0.2676,-9.321,3.4692,0.9127,-1.2882,1.2713,0.4812,-9.64,1.2105,2.1363,0.885883,0,1698375258.2203,9
-0.3963,1.5746,0.1663,1.3219,2.1326,3.5683,-1.8553,-0.68,8.8685,1.0857,-0.7614,-1.7049,0.3872,-9.6734,3.6077,0.9302,-1.6985,1.0436,0.3077,-10.0826,1.2553,2.2494,0.589638,0,1698375258.2303,10
-0.3902,1.259,0.1769,1.2397,2.7339,3.2763,-1.6144,-1.0304,9.5212,1.3294,-0.723,-1.9066,0.5278,-10.0869,3.7367,0.8775,-1.9447,0.8547,0.063,-10.5192,1.2304,2.3272,0.238351,0,1698375258.2403,11
-0.3923,0.8737,0.1859,1.1285,2.8848,2.9516,-1.2738,-1.2037,10.3254,1.0599,-0.6352,-2.0761,0.6864,-10.5161,3.8417,0.8177,-2.0175,0.5061,-0.174,-10.9264,1.1627,2.3456,-0.035726,0,1698375258.2509,12
-0.3998,0.4826,0.1933,1.037,3.0633,2.4734,-0.7511,-1.447,10.5753,0.6722,-0.5056,-2.2026,0.8207,-10.8928,3.9299,0.7711,-1.861,0.1679,-0.3401,-11.2465,1.0089,2.3335,-0.217024,0,1698375258.2605,13
-0.4105,0.12,0.1994,0.9436,2.9872,1.9657,-0.2062,-1.2709,10.5882,0.3481,-0.3547,-2.3349,0.8918,-11.2735,3.9872,0.8302,-1.5179,-0.0086,-0.4197,-11.5528,0.8241,2.3863,-0.167976,0,1698375258.2705,14
-0.4221,-0.1456,0.2051,0.8604,2.7398,1.4725,0.3593,-1.073,11.1462,-0.1143,-0.2835,-2.615,0.8481,-11.7043,4.09,1.0016,-1.1909,-0.3724,-0.3887,-11.9749,0.7389,2.5009,0.05566,0,1698375258.2802,15
-0.4308,-0.217,0.2099,0.7604,2.6823,1.04,1.0057,-1.2022,12.4754,-0.6517,-0.4208,-2.9527,0.9412,-12.1746,4.4042,1.1663,-1.0613,-1.07,-0.2828,-12.5241,0.8379,2.5618,0.261896,0,1698375258.2914,16
-0.4313,-0.0746,0.2122,0.6188,2.2592,0.6802,1.443,-1.3369,13.3298,-0.2734,-0.8164,-3.5192,1.0425,-12.5498,4.911,1.301,-1.1285,-2.0738,-0.2269,-13.0444,1.1564,2.5818,0.426325,0,1698375258.3007,17
-0.4238,0.1907,0.2118,0.4532,1.3895,0.7987,1.6292,-0.9002,13.742,0.3705,-1.317,-4.2166,1.0095,-12.6918,5.4626,1.2572,-1.3017,-3.1184,-0.2577,-13.3655,1.5992,2.498,0.532479,0,1698375258.3109,17
-0.4117,0.4802,0.2076,0.2126,0.9449,0.9419,1.8268,-0.3322,13.2376,1.2746,-1.9999,-4.6074,1.0341,-12.5469,5.9274,0.9679,-1.3536,-3.854,-0.2935,-13.4024,2.0198,2.2153,0.562167,0,1698375258.3208,18
-0.3985,0.6663,0.1972,-0.1579,1.0299,0.7881,2.0637,-0.3396,11.907,2.7048,-2.5618,-4.5693,1.0414,-12.1526,6.1679,0.6072,-1.2576,-4.1305,-0.2463,-13.1191,2.3596,1.7829,0.547191,0,1698375258.3307,19
-0.3891,0.6245,0.1798,-0.6201,0.8812,0.8706,2.2895,-0.3327,11.591,3.828,-2.6685,-4.1314,1.018,-11.6486,6.1048,0.276,-1.2486,-3.8765,-0.1236,-12.6326,2.6123,1.2258,0.525561,0,1698375258.3409,20
-0.3877,0.411,0.1575,-1.091,0.8764,0.7872,2.8023,-0.9125,12.2442,4.3989,-2.5264,-3.373,0.9232,-11.1799,5.8623,0.0396,-1.4325,-3.214,0.0535,-12.0139,2.773,0.5723,0.492764,0,1698375258.3504,21
-0.3916,0.2137,0.1325,-1.501,1.073,0.7915,3.5108,-1.6811,12.6612,4.2298,-2.22,-2.541,0.743,-10.7091,5.6039,-0.0796,-1.652,-2.4931,0.2797,-11.3145,2.7872,-0.1106,0.485858,0,1698375258.3602,22
-0.3938,0.1968,0.105,-1.8643,1.2053,1.226,4.1004,-1.7513,11.9593,4.219,-1.9105,-1.7728,0.4999,-10.2369,5.3994,-0.1971,-1.7109,-1.894,0.5653,-10.7103,2.6617,-0.707,0.516441,0,1698375258.3705,23
-0.3895,0.365,0.0744,-2.1766,0.3578,1.895,4.3401,-1.1948,11.3387,4.4434,-1.8021,-1.2487,0.1594,-9.7915,5.3021,-0.4182,-1.6774,-1.4074,0.9423,-10.2947,2.4826,-1.0925,0.545394,0,1698375258.3803,24
-0.3784,0.5769,0.0407,-2.5143,-0.747,2.2076,4.1659,-0.4892,10.9377,4.6882,-2.1023,-0.7682,-0.2116,-9.3084,5.2802,-0.6811,-1.7391,-1.1351,1.2453,-9.9302,2.4588,-1.2124,0.553911,0,1698375258.3906,25
-0.3642,0.7618,0.0052,-2.8337,-0.8714,2.0839,3.9129,-0.2493,10.6061,4.8741,-2.6346,-0.0593,-0.4869,-8.872,5.3394,-0.9428,-2.0351,-0.9909,1.4585,-9.6091,2.6877,-1.0841,0.538598,0,1698375258.4003,26
-0.3497,0.9171,-0.0301,-3.0235,-0.9578,2.1344,3.644,-0.0856,11.1676,4.7272,-3.1954,0.4828,-0.6693,-8.5488,5.5548,-1.1124,-2.5419,-0.8908,1.6897,-9.4952,3.0759,-0.7993,0.509816,0,1698375258.4107,27
-0.3365,1.01,-0.0643,-3.161,-1.1416,2.2904,3.3925,-0.0171,11.899,4.6307,-3.7699,0.9184,-0.7615,-8.3872,5.8507,-1.1088,-3.0293,-0.9486,1.7577,-9.6302,3.5156,-0.4594,0.488414,0,1698375258.4212,28
-0.3236,1.0412,-0.0979,-3.3203,-1.3415,2.4389,3.1657,-0.1881,12.3489,4.6015,-4.2435,1.3462,-0.7326,-8.4232,6.0559,-1.0203,-3.2477,-1.0599,1.6187,-9.951,3.8312,-0.2344,0.481643,0,1698375258.4308,29
-0.3101,1.1338,-0.1314,-3.3496,-1.5053,2.555,2.8608,-0.6967,12.7492,4.3949,-4.5516,1.7151,-0.5712,-8.63,6.0651,-0.9379,-3.3151,-0.9189,1.406,-10.2724,3.8326,-0.0613,0.475187,0,1698375258.4406,30
-0.2952,1.2776,-0.1649,-3.3465,-1.768,2.71,2.3973,-1.244,12.7464,3.8562,-4.6759,1.9616,-0.3087,-8.9429,5.8943,-0.879,-3.2591,-0.5375,1.1879,-10.5118,3.56,0.1213,0.46857,0,1698375258.4504,31
-0.2784,1.3989,-0.1978,-3.426,-1.9909,2.6258,1.7825,-1.6174,12.5758,3.2312,-4.6583,2.1727,-0.0255,-9.3108,5.618,-0.807,-2.9797,-0.4117,0.8975,-10.6267,3.1782,0.1439,0.459661,0,1698375258.4602,32
-0.2607,1.5247,-0.2295,-3.4515,-1.858,2.2375,1.0859,-1.9108,11.8927,2.8334,-4.4989,2.2701,0.1987,-9.6492,5.2289,-0.7532,-2.4967,-0.5926,0.5671,-10.5732,2.7574,0.0971,0.444864,0,1698375258.4705,33
-0.2429,1.5887,-0.2596,-3.3909,-1.7147,1.9026,0.3659,-2.0198,11.234,2.4582,-4.2464,2.2632,0.3192,-9.8468,4.7784,-0.7254,-2.0713,-0.6795,0.308,-10.3721,2.3542,0.1024,0.42301,0,1698375258.4806,34
-0.2247,1.6185,-0.2873,-3.2178,-1.5319,1.5573,-0.368,-2.0459,10.61,2.2354,-3.9403,2.2254,0.2747,-9.8747,4.3587,-0.7275,-2.0119,-0.5876,0.1075,-10.0018,1.9337,0.1376,0.396426,0,1698375258.4905,35
-0.2055,1.6658,-0.3124,-3.0082,-1.2893,1.1297,-1.1383,-1.959,9.7526,2.2021,-3.573,2.2387,0.0825,-9.6946,3.9551,-0.7474,-2.1131,-0.3756,-0.0056,-9.5212,1.5591,0.2485,0.366561,0,1698375258.5011,36
-0.1851,1.7057,-0.3359,-2.8277,-0.9066,0.5607,-1.9113,-1.8386,9.1041,2.2051,-3.2188,2.4126,-0.1682,-9.3358,3.5869,-0.7427,-1.8535,-0.2229,0.0335,-9.0277,1.2633,0.3176,0.303103,0,1698375258.5107,37
-0.1642,1.737,-0.358,-2.6503,-0.4551,-0.0176,-2.6166,-1.8624,8.6439,2.0552,-2.8098,2.6695,-0.4805,-8.8668,3.279,-0.6975,-1.6032,0.3065,0.1398,-8.5973,1.0012,0.4934,0.132915,0,1698375258.5212,38
-0.1425,1.7575,-0.3786,-2.5322,-0.1938,-0.3688,-3.2215,-1.862,8.2346,1.7307,-2.2901,2.9952,-0.7674,-8.2996,3.007,-0.5904,-1.7897,0.9912,0.1056,-8.1424,0.8505,0.7852,-0.098186,0,1698375258.5307,39
-0.1208,1.7915,-0.3976,-2.4089,-0.0514,-0.6671,-3.7288,-1.8151,7.8582,1.5821,-1.7681,3.353,-0.9656,-7.695,2.7657,-0.4588,-1.8239,1.3365,-0.1187,-7.6584,0.7936,1.007,-0.295146,0,1698375258.5408,40
-0.0997,1.8209,-0.4151,-2.241,0.0353,-1.0225,-4.105,-1.73,7.5909,1.6808,-1.3055,3.8534,-1.1161,-7.1161,2.5989,-0.3093,-1.5811,1.5765,-0.3194,-7.2133,0.7502,1.1267,-0.452365,0,1698375258.5504,41
-0.0784,1.9056,-0.4316,-2.12,0.1052,-1.4254,-4.335,-1.7452,7.4218,1.6893,-0.9266,4.2275,-1.2202,-6.6046,2.5191,-0.1646,-1.1897,1.653,-0.4113,-6.8095,0.7117,1.2074,-0.574634,0,1698375258.5608,42
-0.0578,1.9475,-0.4473,-1.9677,0.1101,-1.7844,-4.4326,-1.9059,7.3947,1.4594,-0.7379,4.3119,-1.2576,-6.1491,2.4402,-0.0335,-0.803,1.6477,-0.4733,-6.4357,0.6852,1.3481,-0.669606,0,1698375258.5706,43
-0.038,1.9246,-0.4623,-1.7979,0.0066,-2.0581,-4.4071,-2.1036,7.3165,1.1474,-0.7056,4.2709,-1.2099,-5.7464,2.3258,0.1103,-0.5273,1.4858,-0.5888,-6.081,0.6797,1.4117,-0.743373,0,1698375258.5805,44
-0.0189,1.9202,-0.4761,-1.6414,-0.1958,-2.3185,-4.296,-2.1076,7.1678,0.9145,-0.7188,3.7993,-1.1474,-5.3719,2.0618,0.1768,-0.3422,1.2375,-0.7015,-5.7537,0.6759,1.4501,-0.80067,0,1698375258.5907,45
-0.0015,1.874,-0.4883,-1.4939,-0.2762,-2.7278,-4.0956,-2.0419,6.9432,1.0214,-0.9294,2.9507,-0.9164,-5.0868,1.7528,0.2031,-0.4123,1.2141,-0.6485,-5.47,0.6115,1.4585,-0.845175,0,1698375258.601,46
0.0138,1.7818,-0.4993,-1.38,-0.2296,-3.2553,-3.7942,-2.1243,6.8139,1.2589,-1.1372,2.3879,-0.6313,-4.9654,1.6548,0.3141,-0.7787,1.7149,-0.6397,-5.1334,0.5537,1.3253,-0.879743,0,1698375258.6107,47
0.0265,1.6346,-0.5083,-1.2576,-0.3323,-3.6932,-3.4178,-2.2009,6.937,1.2424,-1.0822,2.191,-0.5411,-4.9473,1.6729,0.4041,-1.1212,1.9923,-0.7768,-4.9414,0.6146,1.2325,-0.906592,0,1698375258.6206,48
0.0364,1.4527,-0.5155,-1.1009,-0.5416,-4.0759,-3.0044,-2.2601,7.0417,1.1248,-0.904,2.056,-0.5197,-5.0385,1.686,0.4028,-1.4699,1.7996,-0.8484,-5.0251,0.6254,1.2939,-0.927448,0,1698375258.6309,49
0.044,1.2615,-0.5209,-0.9467,-0.7962,-4.4328,-2.5768,-2.2796,6.8966,1.0415,-0.6539,1.9946,-0.5251,-5.2197,1.7351,0.3658,-1.6709,1.4189,-0.9253,-5.1633,0.584,1.3319,-0.943646,0,1698375258.6409,50
0.0493,1.1025,-0.524,-0.7608,-1.0213,-4.7143,-2.1398,-2.1916,6.6045,0.9744,-0.3676,2.0151,-0.5541,-5.4532,1.8818,0.3079,-1.5364,0.7986,-1.0601,-5.4284,0.608,1.3084,-0.956228,0,1698375258.6508,50
0.0538,0.9679,-0.5237,-0.5412,-1.3401,-4.8188,-1.7118,-1.9858,6.5137,0.7386,-0.1189,2.0421,-0.5996,-5.7562,2.1256,0.256,-1.2623,0.1267,-1.1485,-5.8543,0.648,1.2627,-0.966001,0,1698375258.6602,51
0.0587,0.8526,-0.52,-0.3143,-1.5809,-4.9459,-1.2822,-1.8677,6.7388,0.8637,0.0036,2.0375,-0.6699,-6.118,2.4433,0.216,-0.9506,-0.523,-1.184,-6.3729,0.7301,1.2978,-0.973592,0,1698375258.6704,52
0.0649,0.8244,-0.5121,-0.0309,-1.6001,-5.216,-0.8377,-1.7875,6.3941,1.2719,-0.0146,2.0134,-0.7705,-6.4457,2.7852,0.1728,-0.7059,-1.0821,-1.1689,-6.8648,0.8974,1.4247,-0.979488,0,1698375258.6807,53
0.073,0.869,-0.4984,0.3252,-1.5306,-5.3542,-0.3672,-1.4411,5.8018,1.3554,-0.1156,1.982,-0.9032,-6.7987,3.1232,0.1701,-0.475,-1.6153,-1.107,-7.311,1.1446,1.5861,-0.984068,0,1698375258.6914,54
0.0834,0.9524,-0.4784,0.7065,-1.2806,-5.2195,0.1661,-0.971,5.6417,1.2607,-0.2333,2.1629,-1.0574,-7.243,3.4665,0.2304,-0.2649,-2.0337,-1.0614,-7.7848,1.4301,1.8096,-0.987625,0,1698375258.7006,55
0.0952,1.0538,-0.4535,1.0738,-0.8376,-4.9359,0.7261,-0.6363,5.6427,1.0899,-0.2369,2.2626,-1.172,-7.6775,3.7796,0.2589,-0.1614,-2.1968,-1.0354,-8.257,1.6947,2.0537,-0.990388,0,1698375258.711,56
0.1081,1.1428,-0.4255,1.4617,-0.1646,-4.6756,1.2292,-0.4833,5.9019,1.0205,-0.0847,2.0332,-1.1997,-8.0678,4.0573,0.2623,-0.2335,-2.0814,-1.0288,-8.6837,1.9064,2.2711,-0.992534,0,1698375258.7204,57
0.122,1.2283,-0.3974,1.7241,0.7084,-4.4862,1.6072,-0.1779,6.3371,0.9738,0.1299,1.7187,-1.1778,-8.4456,4.3526,0.3016,-0.4285,-1.8291,-1.0433,-9.1175,2.0777,2.4763,-0.994201,0,1698375258.7302,58
0.1358,1.2662,-0.3718,1.8571,1.5731,-4.2717,1.8156,0.1842,7.0565,1.1319,0.3213,1.3414,-1.1258,-8.8222,4.6288,0.3999,-0.6395,-1.5529,-1.0639,-9.5105,2.2391,2.6512,-0.995496,0,1698375258.7405,59
0.1494,1.2568,-0.3525,1.8167,2.3206,-3.9654,1.8906,0.5092,7.4747,1.7045,0.5091,0.9197,-1.0292,-9.1831,4.8211,0.5769,-0.8529,-1.2873,-1.1251,-9.833,2.3765,2.7852,-0.996501,0,1698375258.7507,60
0.1616,1.2329,-0.3446,1.4513,2.7972,-3.6814,1.7817,1.0306,8.7446,1.8924,0.7155,0.4635,-0.8766,-9.4765,4.9416,0.7145,-1.045,-0.9498,-1.1769,-10.113,2.4627,2.8027,-0.997283,0,1698375258.7602,61
0.172,1.1464,-0.3477,0.924,2.8539,-3.1635,1.4347,1.6234,10.9372,1.4413,0.8707,0.0453,-0.6387,-9.6862,5.0935,0.772,-1.2301,-0.5777,-1.1268,-10.4081,2.5037,2.7176,-0.997889,0,1698375258.7709,62
0.1801,1.0434,-0.3579,0.3958,2.6388,-2.4944,0.9062,2.0534,12.5069,0.7209,0.9376,-0.2737,-0.3518,-9.828,5.305,0.8119,-1.3781,-0.4463,-0.9745,-10.7284,2.5125,2.7347,-0.998361,0,1698375258.7807,63
0.186,0.9446,-0.3717,-0.052,2.2928,-2.0702,0.2314,1.9641,13.3798,-0.1887,0.8012,-0.5154,-0.1604,-9.9614,5.5487,0.8794,-1.3669,-0.5931,-0.7727,-11.0609,2.4964,2.8789,-0.846764,0,1698375258.7907,64
0.1899,0.7946,-0.3861,-0.3817,1.8791,-1.6171,-0.4793,1.362,13.7562,-0.8952,0.4081,-0.8012,-0.0705,-10.2323,5.7353,0.9586,-1.1716,-1.0701,-0.5137,-11.5634,2.4513,3.1301,-0.61373,0,1698375258.8004,65
0.1918,0.6214,-0.3969,-0.4656,1.528,-1.0794,-1.1046,0.6139,14.1612,-0.5363,-0.1001,-1.2456,0.0419,-10.7627,5.8105,1.0204,-0.8759,-1.9639,-0.2359,-12.2082,2.3016,3.4357,-0.467696,0,1698375258.8107,66
0.1919,0.4726,-0.3988,-0.2511,0.8105,-0.6908,-1.7139,0.289,14.4677,0.1725,-0.632,-1.7791,0.2408,-11.482,5.79,1.0275,-0.5967,-2.9999,-0.0311,-12.8212,1.9418,3.6166,-0.343695,0,1698375258.8206,67
0.1912,0.3328,-0.3909,0.0966,0.0716,-0.417,-2.3192,0.5422,14.4524,0.7997,-1.0375,-2.2258,0.4968,-12.2361,5.6351,0.8355,-0.3356,-3.5659,0.0188,-13.2437,1.4766,3.523,-0.243064,0,1698375258.8303,68
0.1877,0.1102,-0.3761,0.4438,0.5578,-0.5785,-2.7417,0.1355,13.7517,1.973,-1.1888,-2.4382,0.6589,-12.9298,5.3719,0.3611,-0.12,-3.4482,-0.0634,-13.3792,1.1305,3.1301,-0.171879,0,1698375258.8404,69
0.1788,-0.2016,-0.3586,0.7187,1.4672,-0.4653,-3.0613,-0.3048,12.2694,3.1278,-1.0873,-2.3765,0.6826,-13.3767,4.9848,-0.3006,-0.0591,-3.0799,-0.227,-13.344,0.971,2.616,-0.120069,0,1698375258.8525,70
0.1615,-0.6014,-0.3427,0.7859,1.7143,0.1851,-3.3939,0.1388,11.8142,3.8658,-0.7784,-2.1539,0.6132,-13.375,4.496,-0.9938,-0.051,-2.5926,-0.4486,-13.1553,0.9075,2.103,-0.080689,0,1698375258.8628,71
0.1378,-1.0419,-0.3349,0.6306,2.2658,0.4636,-3.6974,-0.4888,11.9068,4.586,-0.2078,-1.8855,0.4801,-12.9385,3.9707,-1.6224,0.0329,-1.8495,-0.6591,-12.7086,0.8558,1.6337,-0.050226,0,1698375258.873,72
0.112,-1.4262,-0.3355,0.4368,2.6371,0.725,-4.0848,-1.1446,11.8101,4.7421,0.6342,-1.5731,0.3852,-12.1981,3.4835,-2.0652,0.2634,-0.9723,-0.7766,-12.1411,0.7357,1.2484,0.009266,0,1698375258.8822,73
0.086,-1.7717,-0.3368,0.3288,2.3775,0.9528,-4.4335,-0.9834,11.6662,4.4046,1.5745,-1.2239,0.36,-11.3589,3.1313,-2.2907,0.7492,-0.1912,-0.7801,-11.6292,0.5235,0.9579,-0.047069,0,1698375258.8914,74
0.0585,-2.1458,-0.3345,0.3775,2.4571,0.6875,-4.6012,-1.1898,11.3145,4.4042,2.4387,-0.974,0.3559,-10.629,2.8845,-2.4189,1.3617,0.3856,-0.7078,-11.176,0.3098,0.7686,-0.223148,0,1698375258.9028,75
0.0245,-2.5362,-0.3254,0.5471,2.674,0.253,-4.388,-1.3232,9.9543,4.9117,3.052,-0.9068,0.379,-9.9953,2.6752,-2.4727,1.9551,0.8942,-0.5724,-10.7663,0.0497,0.6299,-0.243635,0,1698375258.9122,76
-0.0123,-2.7497,-0.3115,0.7705,2.7104,-0.4023,-3.8586,-1.3571,8.4829,5.3623,3.38,-0.9612,0.4439,-9.5199,2.4551,-2.3953,2.4969,1.4503,-0.3862,-10.4162,-0.2221,0.4874,-0.080086,0,1698375258.922,77
-0.047,-2.9494,-0.295,1.052,2.5291,-1.1099,-3.2232,-1.9772,8.584,5.0382,3.4909,-1.0716,0.5164,-9.3343,2.3221,-2.1529,2.9732,1.8191,-0.176,-10.1483,-0.3881,0.3914,0.107031,0,1698375258.932,78
-0.0813,-3.1315,-0.2774,1.2563,2.1862,-1.5947,-2.5354,-2.9483,8.964,4.7435,3.4866,-1.3167,0.5404,-9.4574,2.3356,-1.8032,3.3823,1.8653,0.0153,-10.0063,-0.4566,0.3714,0.239329,0,1698375258.9413,79
-0.1136,-3.209,-0.2615,1.3609,1.7026,-1.9969,-2.0191,-3.0967,9.3706,4.5127,3.4799,-1.5659,0.5351,-9.7938,2.4019,-1.4706,3.7938,1.5706,0.1205,-10.0253,-0.4301,0.4012,0.366092,0,1698375258.951,80
-0.1459,-3.3162,-0.2457,1.3924,1.3296,-2.38,-1.5336,-2.7124,9.8984,4.1677,3.4474,-1.641,0.5396,-10.1048,2.5264,-1.2139,4.2685,0.8831,0.0684,-10.1227,-0.3251,0.4894,0.499184,0,1698375258.9624,81
-0.1784,-3.3048,-0.229,1.4003,1.0952,-2.7159,-0.964,-2.2936,10.0237,3.9454,3.4085,-1.4437,0.5499,-10.2443,2.6846,-1.0949,4.7515,0.0109,-0.1322,-10.1879,-0.1607,0.6062,0.609529,0,1698375258.9721,82
-0.2081,-3.205,-0.2126,1.4305,0.6183,-2.7748,-0.3963,-1.3662,10.106,3.6012,3.5079,-1.0637,0.5757,-10.2123,2.8254,-1.1493,5.1232,-0.6692,-0.4117,-10.1917,0.06,0.6895,0.694896,0,1698375258.9813,83
-0.2361,-3.0957,-0.1965,1.4917,0.2607,-2.7558,0.2015,-0.4528,10.2697,3.2221,3.6975,-0.778,0.5992,-9.9857,2.9601,-1.2893,5.3437,-0.9648,-0.6713,-10.1188,0.3063,0.708,0.76123,0,1698375258.991,83
-0.2638,-3.0292,-0.1803,1.5747,0.1499,-2.644,0.8175,0.0569,9.8243,3.0097,3.8389,-0.6523,0.5834,-9.5913,3.1024,-1.4165,5.4554,-0.8918,-0.8236,-9.9328,0.5567,0.6723,0.813574,0,1698375259.0003,84
-0.2915,-2.9507,-0.1633,1.5912,0.0443,-2.3764,1.434,0.4107,9.3193,2.8503,3.9299,-0.5914,0.4586,-9.1358,3.2018,-1.4421,5.4892,-0.5506,-0.8719,-9.632,0.7998,0.6029,0.854845,0,1698375259.0105,85
-0.3185,-2.8896,-0.1462,1.5717,-0.0071,-2.0688,2.0322,0.5085,8.7146,2.792,3.9793,-0.7085,0.3276,-8.6334,3.1982,-1.3861,5.4994,-0.0273,-0.8004,-9.2594,0.9902,0.5327,0.886847,0,1698375259.0207,86
-0.3447,-2.8762,-0.1291,1.5724,-0.0564,-1.7192,2.582,0.5425,8.0859,2.6994,3.8822,-0.8676,0.2565,-8.0895,3.2366,-1.2175,5.4339,0.6374,-0.5924,-8.8267,1.1293,0.4624,0.911542,0,1698375259.0307,87
-0.3696,-2.8399,-0.1121,1.6248,0.0451,-1.382,3.1028,0.5395,7.3773,2.7422,3.6746,-0.872,0.1655,-7.554,3.3127,-0.9253,5.3124,1.2823,-0.3276,-8.3193,1.2333,0.3651,0.930986,0,1698375259.041,88
-0.3935,-2.7786,-0.0954,1.6448,0.1035,-1.0331,3.5295,0.6711,7.0295,2.8467,3.4529,-0.7952,0.1213,-7.0274,3.3151,-0.6049,5.1566,1.8676,-0.0555,-7.7453,1.2992,0.275,0.946385,0,1698375259.0507,89
-0.416,-2.637,-0.0788,1.6177,0.1053,-0.6957,3.8549,0.8647,7.0392,2.7994,3.2177,-0.6146,0.1193,-6.5462,3.2982,-0.2921,4.8592,2.422,0.2223,-7.2006,1.3498,0.2459,0.958354,0,1698375259.062,90
-0.4378,-2.4485,-0.0615,1.6267,0.0693,-0.3459,4.0992,1.0076,6.9658,2.6717,3.0708,-0.418,0.1041,-6.1304,3.2715,-0.0221,4.4297,2.8696,0.4636,-6.7392,1.3688,0.284,0.967652,0,1698375259.0712,91
-0.4577,-2.3122,-0.0455,1.5946,-0.2084,0.1108,4.2378,1.3434,7.0889,2.397,3.0077,-0.1563,0.0803,-5.8006,3.1776,0.1966,4.0108,3.0997,0.6869,-6.3801,1.3025,0.3142,0.974874,0,1698375259.082,92
-0.4753,-2.1846,-0.0304,1.546,-0.4701,0.5635,4.2406,1.6889,7.2024,2.1619,2.8838,0.3632,-0.0139,-5.6623,3.1634,0.3812,3.7238,2.969,0.8356,-6.1228,1.2457,0.2895,0.980483,0,1698375259.0914,93
-0.4912,-1.9868,-0.016,1.544,-0.4731,0.8623,4.1159,1.8132,7.1957,2.1945,2.8353,0.8186,-0.2005,-5.6911,3.1625,0.5444,3.4651,2.4721,0.8974,-5.9403,1.2818,0.2906,0.98484,0,1698375259.1009,94
-0.5044,-1.8205,-0.0029,1.5546,-0.478,1.1362,3.8962,1.9175,7.1402,2.2369,2.8078,0.431,-0.3096,-5.7205,2.8689,0.5974,3.1227,2.1203,0.9463,-5.9068,1.2438,0.3826,0.988223,0,1698375259.111,95
-0.5162,-1.6702,0.0104,1.5517,-0.6658,1.5483,3.5859,2.1111,7.2882,2.0026,2.6365,-0.2195,-0.0399,-5.6693,2.408,0.5899,2.7988,1.8223,0.8854,-6.0318,1.155,0.4942,0.990852,0,1698375259.1202,96
-0.5259,-1.5099,0.0232,1.5096,-0.839,2.0422,3.1616,2.2612,7.5366,1.7073,2.425,-0.9659,0.2574,-5.7813,2.2161,0.6049,2.4816,1.14,0.7963,-6.1457,1.1028,0.5739,0.992894,0,1698375259.131,97
-0.5333,-1.3369,0.0353,1.4397,-0.9045,2.5077,2.6591,2.3587,7.6787,1.5663,2.1713,-1.3241,0.2327,-6.0359,2.3756,0.6399,2.1475,0.5717,0.7561,-6.2559,1.0711,0.6545,0.99448,0,1698375259.1402,98
-0.5389,-1.1224,0.047,1.3591,-0.8497,2.79,2.1631,2.0761,7.7338,1.664,1.82,-0.9257,0.2007,-6.2767,2.529,0.6795,1.8436,0.3084,0.6874,-6.4655,1.0534,0.7751,0.995713,0,1698375259.1509,99
-0.5413,-0.8883,0.0581,1.3028,-0.8208,2.9905,1.6466,1.6687,7.9815,1.6739,1.4371,-0.6511,0.2304,-6.5377,2.6372,0.6772,1.5547,0.1627,0.5803,-6.7124,1.0397,0.9,0.99667,0,1698375259.1606,0
-0.5403,-0.6378,0.0688,1.2771,-1.0148,3.2868,1.0826,1.5158,8.1855,1.2098,1.1568,-0.4507,0.2688,-6.7562,2.7404,0.6508,1.3091,0.1049,0.4631,-6.9625,1.0432,0.9784,0.997413,0,1698375259.1701,1
-0.5368,-0.3628,0.0789,1.2431,-1.3623,3.5818,0.5253,1.3752,8.2704,0.6879,0.9476,-0.364,0.3114,-6.9768,2.8329,0.6098,1.1805,0.1001,0.3839,-7.2051,0.9788,1.0374,0.997991,0,1698375259.1805,2
-0.5304,-0.0904,0.0888,1.214,-1.7055,3.7725,-0.0056,1.1676,8.4181,0.4439,0.7715,-0.4143,0.3283,-7.2285,2.9357,0.5661,1.1667,0.0929,0.3813,-7.5008,0.8203,1.1083,0.998431,0,1698375259.1908,3
-0.5195,0.1826,0.0987,1.1802,-1.8912,3.9028,-0.5373,0.9162,8.3065,0.3616,0.6117,-0.5999,0.3005,-7.5045,3.0015,0.5303,1.1568,-0.0081,0.4601,-7.8504,0.7276,1.1827,0.998661,0,1698375259.2013,4
-0.5032,0.4843,0.1087,1.1316,-1.9766,4.0526,-1.0593,0.7496,8.0904,0.2261,0.3972,-0.9197,0.2133,-7.8105,3.0766,0.5351,1.0485,-0.1735,0.5981,-8.2241,0.7276,1.2634,0.998205,0,1698375259.2107,5
-0.4837,0.7781,0.1196,1.1295,-1.8051,4.1331,-1.4955,0.4812,7.7414,0.2143,0.0526,-1.2703,0.132,-8.1324,3.1568,0.6038,0.8196,-0.3531,0.7538,-8.5769,0.7802,1.3518,0.996022,0,1698375259.2214,6
-0.4616,1.0861,0.1314,1.1916,-1.516,4.2579,-1.8607,0.1728,7.574,0.3453,-0.3183,-1.5869,0.1046,-8.4795,3.2101,0.7205,0.4517,-0.4644,0.8995,-8.8819,0.9023,1.4693,0.990754,0,1698375259.2302,7
-0.439,1.4116,0.1435,1.2179,-1.0529,4.3369,-2.0872,-0.1205,7.7214,0.5255,-0.591,-1.8022,0.1089,-8.88,3.3022,0.8761,-0.1229,-0.3174,0.999,-9.2391,1.0305,1.6066,0.976996,0,1698375259.2404,8
-0.4186,1.6173,0.1558,1.1898,-0.1673,4.2227,-2.0979,-0.4229,8.0788,0.6086,-0.7994,-1.8663,0.2,-9.3368,3.4352,1.018,-0.7942,0.0498,0.9306,-9.6079,1.1654,1.7822,0.940011,0,1698375259.2504,9
-0.4013,1.6179,0.1681,1.1851,0.7157,4.065,-1.9707,-0.4674,8.5227,0.7226,-0.9655,-1.8709,0.3108,-9.8161,3.5474,1.1158,-1.3326,0.3666,0.6159,-10.0051,1.3079,2.0201,0.824782,0,1698375259.2616,10
-0.3907,1.4034,0.1799,1.1501,1.3615,3.755,-1.6818,-0.7573,9.4114,0.8507,-1.1005,-1.8753,0.402,-10.271,3.6222,1.1721,-1.8446,0.4619,0.2563,-10.4664,1.3811,2.2616,0.552481,0,1698375259.2713,11
-0.3883,1.0646,0.1899,1.0626,1.8213,3.4111,-1.2317,-1.4002,10.3745,0.475,-1.1628,-2.0433,0.4924,-10.6861,3.7218,1.1603,-2.296,0.137,-0.3289,-10.8633,1.3744,2.4874,0.216511,0,1698375259.2802,12
-0.3914,0.729,0.1974,0.9857,1.9876,3.1653,-0.7431,-1.5676,10.9419,-0.1876,-1.1677,-2.0978,0.5763,-11.004,3.8234,1.1496,-2.4156,-0.209,-0.8797,-11.1619,1.2773,2.6125,-0.053559,0,1698375259.2905,13
-0.3966,0.4407,0.2035,0.9076,2.121,2.8099,-0.2196,-1.2975,11.2993,-0.5993,-1.1272,-2.0218,0.6457,-11.2666,3.9374,1.181,-2.2316,-0.4207,-1.0357,-11.4307,1.1229,2.6576,-0.251367,0,1698375259.3016,14
-0.4032,0.219,0.2084,0.7991,2.217,2.2509,0.3217,-1.0837,11.6063,-0.7475,-1.0744,-2.2013,0.6067,-11.5802,4.1079,1.2175,-2.0358,-0.8272,-0.9685,-11.7745,0.9606,2.7399,-0.38765,0,1698375259.3115,15
-0.4087,0.103,0.2114,0.6681,2.1356,1.8969,0.8359,-0.8861,12.1692,-0.6894,-1.2277,-2.5777,0.458,-11.9123,4.3933,1.2915,-1.986,-1.4889,-0.74,-12.2246,0.9085,2.8257,-0.299085,0,1698375259.3215,16
-0.4093,0.1325,0.2121,0.5182,1.6582,2.0002,1.2642,-0.5448,13.0979,-0.4772,-1.7132,-3.118,0.3083,-12.1982,4.8197,1.3597,-2.0232,-2.3735,-0.5727,-12.6886,1.0819,2.828,-0.043698,0,1698375259.3319,17
-0.4043,0.2484,0.211,0.3444,1.0999,1.9851,1.6523,-0.5349,13.8118,0.2553,-2.3775,-3.5803,0.2842,-12.3354,5.2508,1.2689,-2.1381,-3.1765,-0.5552,-13.0022,1.3972,2.687,0.108568,0,1698375259.3414,17
-0.3962,0.4221,0.2069,0.1164,1.0753,1.6214,2.0142,-0.9543,12.6883,2.1215,-2.977,-3.8626,0.3242,-12.2452,5.6146,0.9789,-2.1234,-3.5591,-0.5638,-13.0604,1.7341,2.3549,0.184399,0,1698375259.3508,18
-0.3876,0.5555,0.1957,-0.2598,1.2428,1.3167,2.286,-1.0221,10.9709,3.7997,-3.3302,-3.7479,0.4047,-11.9629,5.7672,0.5858,-2.0523,-3.3859,-0.4145,-12.8831,2.0864,1.8869,0.251176,0,1698375259.3602,19
-0.3812,0.5134,0.1762,-0.7527,1.1659,1.2462,2.5388,-0.8821,10.8874,4.6116,-3.2602,-3.0597,0.4775,-11.5654,5.6976,0.1923,-2.1156,-2.8806,-0.1435,-12.5306,2.4057,1.3755,0.328964,0,1698375259.3708,20
-0.3806,0.3518,0.1514,-1.1891,1.458,0.9631,3.0974,-1.3857,11.4326,5.2217,-2.8778,-2.1187,0.494,-11.1684,5.5404,-0.107,-2.1945,-2.1848,0.1293,-11.9903,2.6136,0.8089,0.41642,0,1698375259.3803,21
-0.3842,0.1827,0.124,-1.4815,1.7174,0.7577,3.7801,-1.9046,11.2835,5.1749,-2.3651,-1.1372,0.4394,-10.7743,5.3579,-0.2894,-2.2491,-1.4722,0.3709,-11.3603,2.7,0.2322,0.491113,0,1698375259.3908,22
-0.3856,0.1754,0.0949,-1.7542,1.3078,0.985,4.3018,-1.7798,11.3612,3.9949,-1.9039,-0.5053,0.2377,-10.3765,5.2172,-0.4164,-2.1908,-1.0158,0.6481,-10.873,2.6188,-0.2142,0.551177,0,1698375259.4004,23
-0.3808,0.3277,0.064,-2.1034,1.0058,1.032,4.7489,-1.7141,10.4428,3.4995,-1.7961,-0.1849,-0.0323,-10.0132,5.1798,-0.4801,-2.0297,-0.825,0.9214,-10.4954,2.5426,-0.4609,0.605858,0,1698375259.4106,24
-0.3696,0.5157,0.0303,-2.4435,0.8565,1.187,4.6495,-0.8976,9.3822,3.5812,-2.0465,0.2592,-0.2915,-9.6167,5.1975,-0.5477,-2.1977,-0.6316,1.1933,-10.1518,2.5727,-0.5747,0.66181,0,1698375259.4204,25
-0.355,0.7061,-0.005,-2.6634,0.496,1.6091,4.2204,-0.0274,9.77,3.5121,-2.4736,0.7626,-0.5328,-9.2264,5.2853,-0.6566,-2.5924,-0.3816,1.4241,-9.9032,2.7091,-0.6028,0.703491,0,1698375259.4302,26
-0.3397,0.842,-0.0403,-2.8526,-0.0892,1.9429,3.9297,-0.0902,10.7696,3.7927,-2.9613,1.1561,-0.7152,-8.9451,5.5066,-0.7086,-3.083,0.0094,1.6408,-9.815,2.9669,-0.5096,0.693893,0,1698375259.4407,27
-0.3251,0.9239,-0.0749,-3.1037,-0.5062,2.2456,3.6963,-0.3133,11.7176,3.9792,-3.416,1.4448,-0.8065,-8.8159,5.7684,-0.7043,-3.6797,0.5874,1.7674,-9.8319,3.257,-0.3533,0.656599,0,1698375259.4502,28
-0.3111,1.021,-0.109,-3.3222,-1.0133,2.5932,3.434,-0.5106,12.1864,4.0411,-3.7564,1.6911,-0.8067,-8.8457,5.9359,-0.6898,-3.9864,0.8515,1.6851,-9.9577,3.4849,-0.1232,0.629204,0,1698375259.4605,29
-0.297,1.1195,-0.1429,-3.4279,-1.6014,2.7695,3.0428,-0.7951,12.9445,3.806,-3.9014,1.9975,-0.6868,-8.9833,5.9032,-0.7314,-4.0013,0.974,1.8674,-10.2006,3.3816,0.1206,0.60533,0,1698375259.4708,30
-0.2817,1.2417,-0.1763,-3.4892,-1.7251,2.5698,2.5744,-1.509,12.9117,3.6393,-3.8539,2.4383,-0.4853,-9.1786,5.7142,-0.848,-3.7683,1.024,1.8701,-10.3532,3.0897,0.2676,0.580263,0,1698375259.4807,31
-0.2652,1.3369,-0.209,-3.5063,-1.8544,2.3584,2.0053,-2.0672,12.1368,3.4909,-3.7403,2.8813,-0.2965,-9.3872,5.4282,-0.978,-3.4305,0.8131,1.4726,-10.3883,2.8127,0.3616,0.551713,0,1698375259.4906,32
-0.2484,1.4199,-0.2407,-3.4419,-1.8841,2.1321,1.3212,-2.2396,11.4143,3.1846,-3.6546,3.1614,-0.1805,-9.561,5.0529,-1.07,-3.1511,0.6135,1.1749,-10.2971,2.5096,0.3971,0.520298,0,1698375259.5012,33
-0.2309,1.5004,-0.2709,-3.4025,-1.8236,1.721,0.5155,-2.1966,10.7534,2.9335,-3.5701,3.3219,-0.1646,-9.63,4.6574,-1.0633,-2.9801,0.4559,1.0246,-10.054,2.2448,0.3237,0.486649,0,1698375259.5107,34
-0.213,1.5181,-0.2989,-3.3379,-1.8235,1.2774,-0.3712,-2.1266,10.2153,2.7345,-3.3946,3.4073,-0.234,-9.5676,4.269,-0.9505,-2.6402,0.475,0.9684,-9.7026,1.9367,0.1691,0.448285,0,1698375259.5214,35
-0.1938,1.5448,-0.3256,-3.1857,-1.6079,0.7384,-1.2465,-2.1596,9.545,2.551,-3.0571,3.3715,-0.3833,-9.371,3.8796,-0.7829,-2.2893,0.8375,0.9136,-9.3086,1.6044,0.1337,0.376853,0,1698375259.5315,36
-0.1733,1.6164,-0.3502,-3.0094,-1.3415,0.2236,-2.0882,-2.0636,8.8033,2.3904,-2.611,3.3692,-0.5633,-9.0348,3.5053,-0.6137,-2.3141,1.4463,0.9017,-8.8788,1.2851,0.2359,0.23783,0,1698375259.5419,37
-0.1523,1.7611,-0.3717,-2.8214,-0.9838,-0.2207,-2.8452,-1.957,8.0866,2.3508,-2.0948,3.5387,-0.7064,-8.5611,3.1763,-0.4863,-2.3547,2.07,0.8005,-8.3966,1.0219,0.3559,0.022091,0,1698375259.5515,38
-0.1313,1.841,-0.3913,-2.5863,-0.5372,-0.7703,-3.4766,-1.9622,7.6483,2.3709,-1.5294,3.862,-0.775,-7.997,2.9133,-0.4154,-2.2456,2.5817,0.6435,-7.9083,0.8524,0.4985,-0.204962,0,1698375259.5618,39
-0.1104,1.8955,-0.4092,-2.3894,-0.065,-1.3301,-3.9508,-2.0044,7.4068,2.2149,-1.0332,4.1175,-0.6988,-7.4113,2.6657,-0.4173,-2.0195,2.9238,0.5189,-7.4105,0.7491,0.6914,-0.382466,0,1698375259.571,40
-0.0904,1.9292,-0.4252,-2.2565,0.2531,-1.7922,-4.2706,-2.1141,7.2053,1.9564,-0.5694,4.3483,-0.6344,-6.8604,2.472,-0.3933,-1.5839,3.152,0.3515,-6.8951,0.7239,0.9457,-0.520343,0,1698375259.5808,41
-0.0721,1.9116,-0.4404,-2.1175,0.369,-2.1775,-4.4534,-2.1662,6.9545,1.7339,-0.2074,4.5591,-0.6654,-6.374,2.3465,-0.3159,-1.0367,3.0258,0.0629,-6.4325,0.776,1.2229,-0.627436,0,1698375259.5908,42
-0.0546,1.9063,-0.4557,-2.0069,0.2647,-2.5365,-4.4982,-2.0279,6.7064,1.5555,-0.06,4.5106,-0.6469,-5.9601,2.1934,-0.2507,-0.5308,2.4507,-0.2038,-6.0681,0.7617,1.3833,-0.710619,0,1698375259.6005,43
-0.0387,1.8698,-0.4702,-1.9174,0.084,-2.9636,-4.3898,-2.0974,6.5859,1.4917,0.0315,4.3375,-0.5822,-5.6306,2.048,-0.1851,-0.1242,1.8573,-0.4213,-5.7642,0.7551,1.4495,-0.775229,0,1698375259.6103,44
-0.0245,1.763,-0.4837,-1.7987,-0.0256,-3.4419,-4.1506,-2.4323,6.5047,1.4778,0.0991,3.9286,-0.2499,-5.364,1.9091,-0.1414,0.1558,1.5635,-0.6268,-5.526,0.7473,1.4239,-0.825414,0,1698375259.6203,45
-0.0123,1.5919,-0.496,-1.6859,-0.1424,-3.9139,-3.8215,-2.6966,6.5022,1.417,0.0783,3.4772,0.0355,-5.2189,1.7973,-0.108,0.185,1.533,-0.7941,-5.3739,0.6533,1.3633,-0.864394,0,1698375259.6308,46
-0.0022,1.4681,-0.5068,-1.5905,-0.3626,-4.3684,-3.4288,-2.8034,6.6291,1.2943,0.0648,3.1454,0.0007,-5.2147,1.7459,-0.0994,0.0321,1.4973,-0.9692,-5.3086,0.6014,1.3423,-0.89467,0,1698375259.6402,47
0.006,1.3497,-0.5158,-1.4535,-0.5745,-4.7563,-2.9763,-2.7206,6.7234,1.2055,0.1471,2.793,-0.0767,-5.324,1.7245,-0.102,-0.4718,1.4245,-1.1674,-5.1513,0.5852,1.3665,-0.918187,0,1698375259.6508,48
0.0128,1.2023,-0.523,-1.2915,-0.8789,-5.0355,-2.5268,-2.3545,6.6536,1.1304,0.2835,2.5389,-0.1683,-5.5,1.7263,-0.0736,-1.009,1.3534,-1.3964,-5.1251,0.6653,1.4858,-0.936454,0,1698375259.6614,49
0.0194,1.0627,-0.5279,-1.1072,-1.1255,-5.3051,-2.0738,-1.8689,6.5121,1.1535,0.4236,2.3024,-0.2658,-5.7401,1.8282,-0.0339,-1.0717,1.2488,-1.4941,-5.4548,0.7743,1.62,-0.950642,0,1698375259.6706,50
0.0255,0.9272,-0.5298,-0.8827,-1.1654,-5.5717,-1.5778,-1.5543,6.4312,1.1678,0.5536,2.0939,-0.3825,-6.0694,2.0458,0.0148,-0.9286,0.7917,-1.5121,-5.9116,0.8763,1.7022,-0.961662,0,1698375259.6805,50
0.0318,0.8755,-0.5292,-0.6677,-1.2552,-5.6628,-1.0895,-1.3206,6.4144,1.0139,0.6598,1.8869,-0.4808,-6.4318,2.3105,0.093,-0.8014,-0.0576,-1.6803,-6.3961,1.0398,1.8821,-0.970222,0,1698375259.6913,51
0.0399,0.9036,-0.5262,-0.4395,-1.3488,-5.5947,-0.694,-1.0391,6.6317,0.9658,0.7252,1.651,-0.5768,-6.7889,2.6382,0.2102,-0.6624,-0.8826,-1.8962,-6.843,1.2084,2.1269,-0.97687,0,1698375259.7017,52
0.0494,0.9365,-0.5184,-0.1319,-1.6516,-5.3824,-0.3843,-0.2688,6.3475,1.0316,0.7785,1.4201,-0.6513,-7.0871,2.9983,0.3097,-0.5392,-1.5549,-1.9581,-7.2508,1.3237,2.2282,-0.982035,0,1698375259.712,53
0.0599,0.9682,-0.5045,0.2226,-1.8109,-5.3028,-0.0108,0.6243,5.9642,1.2318,0.8242,1.1385,-0.7041,-7.3396,3.3262,0.3338,-0.556,-1.7209,-1.8384,-7.7105,1.3894,2.2223,-0.986046,0,1698375259.7218,54
0.071,0.9936,-0.4848,0.6069,-1.4259,-5.379,0.4737,0.7225,6.0236,1.4314,0.8214,0.8201,-0.7664,-7.5943,3.6399,0.3117,-0.7104,-1.5081,-1.6244,-8.1496,1.5046,2.1655,-0.989161,0,1698375259.7312,55
0.082,1.0156,-0.4615,1.0943,-0.8567,-5.4714,0.9863,0.3706,6.1056,1.3182,0.7936,0.41,-0.842,-7.8356,3.9552,0.2859,-0.833,-1.2721,-1.4003,-8.4615,1.7202,2.0952,-0.991581,0,1698375259.7407,56
0.0934,1.0803,-0.4355,1.592,-0.3422,-5.3182,1.4083,0.1171,6.3536,1.0139,0.8342,-0.0475,-0.9034,-8.0327,4.2271,0.2956,-0.8464,-0.9167,-1.175,-8.7637,1.9572,2.0481,-0.993461,0,1698375259.7506,57
0.1057,1.1607,-0.4082,1.8971,0.0447,-4.8413,1.6909,0.0918,6.7361,0.7835,0.9664,-0.3926,-0.9135,-8.2323,4.4727,0.3635,-1.0025,-0.6091,-0.9353,-9.0783,2.1698,2.1286,-0.994921,0,1698375259.7606,58
0.1185,1.1766,-0.383,1.9869,0.4551,-4.4649,1.8235,0.0948,7.5669,0.6986,1.109,-0.6785,-0.8694,-8.5031,4.6996,0.4972,-1.2746,-0.4562,-0.7303,-9.3684,2.3521,2.3017,-0.996055,0,1698375259.7704,59
0.1311,1.1338,-0.3622,1.9004,0.6665,-4.0575,1.8209,0.0819,8.3218,1.1058,1.2335,-1.0412,-0.7635,-8.8465,4.8663,0.7224,-1.5081,-0.4644,-0.5976,-9.6488,2.4699,2.4223,-0.996936,0,1698375259.7808,60
0.1427,1.0767,-0.3502,1.5949,0.8895,-3.5416,1.777,0.2545,9.3962,1.5752,1.3003,-1.3834,-0.6004,-9.206,4.9623,0.9305,-1.6749,-0.6762,-0.5183,-9.9125,2.548,2.4479,-0.99762,0,1698375259.7902,61
0.1525,1.0433,-0.3496,1.1334,1.2451,-3.0591,1.6143,0.4561,10.743,1.5207,1.2696,-1.5828,-0.3739,-9.4994,5.074,0.9815,-1.744,-0.989,-0.4525,-10.1936,2.5716,2.3797,-0.998151,0,1698375259.8008,62
0.1601,1.0049,-0.3578,0.6158,1.298,-2.5029,1.2382,0.7816,11.7181,1.1429,1.1306,-1.6319,-0.0992,-9.6933,5.2132,0.8853,-1.6299,-1.3163,-0.3681,-10.5043,2.546,2.3188,-0.998131,0,1698375259.8107,63
0.1657,0.9101,-0.3712,0.1617,1.0732,-1.8578,0.6496,1.089,12.8205,0.4788,0.7969,-1.5934,0.1244,-9.8584,5.4036,0.7657,-1.4619,-1.6088,-0.2932,-10.8157,2.5267,2.4225,-0.854321,0,1698375259.8204,64
0.1702,0.7738,-0.3866,-0.1885,0.8322,-1.3575,-0.0642,1.1674,13.657,-0.1018,0.2914,-1.7391,0.2274,-10.1192,5.6335,0.7345,-1.2905,-1.9043,-0.1975,-11.2065,2.5168,2.6955,-0.604699,0,1698375259.8308,65
0.173,0.6232,-0.4002,-0.3959,0.8588,-1.0908,-0.7822,1.1738,14.1835,-0.3247,-0.2486,-2.0823,0.2801,-10.5898,5.7881,0.8071,-1.1413,-2.3016,-0.061,-11.7754,2.4273,3.0542,-0.420416,0,1698375259.8408,66
0.1735,0.4618,-0.4065,-0.3255,0.4867,-0.5769,-1.287,1.0237,14.5198,0.1979,-0.7508,-2.5125,0.3696,-11.2929,5.8084,0.8968,-1.1233,-2.5267,0.0698,-12.348,2.1359,3.3059,-0.317048,0,1698375259.8512,67
0.1729,0.3333,-0.4023,-0.0685,0.1695,-0.1437,-1.5548,0.2127,14.2015,1.3818,-1.1425,-2.8833,0.509,-12.0855,5.662,0.8289,-1.1017,-2.3172,0.1807,-12.7767,1.6694,3.263,-0.237751,0,1698375259.8607,68
0.1714,0.2089,-0.39,0.2685,0.1975,0.3309,-1.8871,-0.4003,13.0694,2.2837,-1.2985,-2.9352,0.6471,-12.7484,5.3735,0.4335,-1.0193,-1.9432,0.1782,-12.9784,1.2292,2.992,-0.142967,0,1698375259.8707,69
0.1661,0.0016,-0.3731,0.6262,0.1205,0.962,-2.2961,-0.4229,12.2584,2.9485,-1.1657,-2.7037,0.6658,-13.0957,4.985,-0.2591,-0.9041,-1.7379,-0.029,-12.982,0.9827,2.5851,-0.073865,0,1698375259.8806,70
0.1544,-0.3261,-0.356,0.8861,0.7628,1.0943,-2.7109,-0.8286,12.2946,4.1156,-0.7899,-2.4498,0.5209,-13.1137,4.5074,-1.0437,-0.6877,-1.5452,-0.3417,-12.8247,0.8811,2.11,-0.027516,0,1698375259.8903,71
0.1361,-0.7285,-0.3438,0.8828,1.537,1.1791,-3.213,-0.8085,12.1099,4.8985,-0.2057,-2.2824,0.3138,-12.7647,3.9857,-1.7127,-0.3765,-1.1594,-0.6443,-12.4371,0.8117,1.7004,-0.049579,0,1698375259.9013,72
0.1126,-1.0692,-0.3406,0.6626,1.8733,1.5271,-3.7052,-0.4436,12.1645,4.8073,0.5702,-2.0629,0.1554,-12.0762,3.5216,-2.1597,0.0255,-0.8769,-0.9133,-11.9152,0.709,1.3322,-0.174705,0,1698375259.9103,73
0.0872,-1.3369,-0.3431,0.4382,2.2708,1.4574,-4.0039,-0.8756,11.69,5.1329,1.4515,-1.7023,0.0683,-11.2626,3.1607,-2.4055,0.5303,-0.6224,-1.0669,-11.3848,0.4915,0.9602,-0.121338,0,1698375259.9238,74
0.055,-1.6853,-0.3443,0.3797,2.3955,1.2345,-4.0818,-1.329,10.5721,5.4461,2.2818,-1.3993,0.0483,-10.5222,2.8624,-2.4973,1.2301,-0.222,-1.0337,-10.9667,0.2125,0.6614,0.124725,0,1698375259.9334,75
0.0193,-2.0714,-0.3398,0.5297,1.3693,1.3894,-3.9939,-0.8661,10.672,4.6963,2.873,-1.3761,0.0779,-9.9275,2.6168,-2.4636,2.0079,0.1299,-0.8741,-10.6481,-0.0398,0.4603,0.31778,0,1698375259.9422,76
-0.0124,-2.3527,-0.3297,0.7755,0.0957,1.3504,-3.6496,-0.74,10.8042,3.9235,3.0178,-1.6214,0.2049,-9.4593,2.4376,-2.3059,2.653,0.4621,-0.6547,-10.3968,-0.2283,0.353,0.469753,0,1698375259.9518,77
-0.0459,-2.6366,-0.315,1.0224,-0.1265,0.664,-3.0635,-1.8283,10.3464,3.8809,2.8729,-1.8511,0.3334,-9.3032,2.3494,-2.0102,3.1106,0.7388,-0.4076,-10.2086,-0.3143,0.2292,0.587525,0,1698375259.9615,78
-0.0806,-2.9664,-0.2979,1.1668,0.2165,-0.2433,-2.4991,-2.9414,10.0279,4.1318,2.7475,-1.9298,0.3965,-9.4148,2.3597,-1.6678,3.4106,0.8132,-0.1926,-10.1181,-0.3014,0.1361,0.669899,0,1698375259.9713,79
-0.114,-3.1062,-0.2819,1.2495,0.2647,-0.7325,-2.0633,-2.9414,10.1756,4.1343,2.6962,-2.0489,0.4344,-9.6805,2.4816,-1.3165,3.6931,0.5778,-0.0367,-10.1886,-0.2059,0.1848,0.733704,0,1698375259.9808,80
-0.1455,-3.1127,-0.2669,1.3046,0.0636,-1.0911,-1.6473,-2.6246,10.7532,3.8107,2.6146,-2.0622,0.4844,-10.0617,2.6936,-1.0146,4.0992,0.0915,-0.0324,-10.3176,-0.0267,0.2796,0.79225,0,1698375259.9904,81
-0.1757,-3.1479,-0.2517,1.3386,-0.0228,-1.4608,-1.2091,-2.1648,10.7259,3.7072,2.5503,-1.6677,0.6212,-10.2442,2.9209,-0.9297,4.8133,-0.6295,-0.1884,-10.4216,0.2176,0.443,0.837995,0,1698375260.0008,82
-0.2057,-3.1117,-0.2363,1.4091,-0.1742,-1.7591,-0.7451,-1.249,10.4606,3.7369,2.7066,-1.0153,0.7598,-10.2099,3.127,-1.006,5.3468,-1.3464,-0.3999,-10.4468,0.4851,0.6477,0.873488,0,1698375260.0108,83
-0.235,-3.0054,-0.2201,1.5152,-0.1427,-2.1544,-0.1879,-0.6638,10.2963,3.6236,3.0479,-0.5171,0.8683,-10.0458,3.3018,-1.1355,5.3734,-1.6067,-0.5761,-10.3648,0.7533,0.7677,0.901046,0,1698375260.0203,83
-0.2632,-2.9514,-0.2032,1.5894,-0.016,-2.2483,0.3897,-0.2612,9.7706,3.4017,3.3701,-0.2213,0.9126,-9.7318,3.4684,-1.2169,5.2202,-1.3726,-0.6294,-10.1707,0.988,0.7663,0.92272,0,1698375260.0303,84
-0.2909,-2.914,-0.1857,1.6778,-0.0002,-1.9626,0.945,0.1449,9.2421,3.1447,3.651,-0.0018,0.7978,-9.2775,3.5793,-1.2282,5.1856,-0.7859,-0.5022,-9.8771,1.1522,0.6385,0.939875,0,1698375260.0406,85
-0.3181,-2.8574,-0.1679,1.7828,0.0529,-1.7202,1.4836,0.4175,8.506,3.1014,3.8905,0.0281,0.661,-8.7341,3.5745,-1.1745,5.2669,0.0746,-0.3411,-9.4891,1.2436,0.458,0.953194,0,1698375260.051,86
-0.3447,-2.8221,-0.15,1.7703,0.0559,-1.4432,1.9923,0.5734,7.9062,3.0624,3.9385,-0.0305,0.5657,-8.1816,3.5495,-1.0021,5.2031,1.1272,-0.1921,-8.961,1.3085,0.3132,0.963542,0,1698375260.0604,87
-0.3692,-2.7764,-0.1319,1.7598,0.0718,-1.1114,2.4453,0.6439,7.3738,2.9581,3.7882,-0.0402,0.444,-7.6713,3.5527,-0.7358,4.978,2.1077,0.0523,-8.4068,1.365,0.1952,0.971644,0,1698375260.0702,88
-0.3919,-2.7062,-0.1139,1.7657,0.1532,-0.788,2.8467,0.9225,6.8571,2.9503,3.4952,0.023,0.3521,-7.2232,3.5173,-0.4403,4.6464,2.7269,0.3325,-7.8731,1.4087,0.1153,0.977969,0,1698375260.0801,89
-0.4144,-2.5988,-0.0962,1.7122,0.1993,-0.461,3.2104,1.1786,6.591,3.0993,3.1559,0.1496,0.2772,-6.8135,3.4267,-0.1752,4.2388,2.9615,0.6157,-7.3522,1.4236,0.1237,0.982887,0,1698375260.0905,90
-0.4359,-2.4383,-0.0787,1.6423,-0.0835,0.0452,3.4494,1.4821,7.0003,2.9581,2.8847,0.3511,0.1918,-6.4669,3.3206,0.063,3.8174,2.935,0.8536,-6.9033,1.416,0.1798,0.986707,0,1698375260.1006,91
-0.4562,-2.2919,-0.0619,1.6156,-0.3467,0.5109,3.613,1.7689,7.4634,2.7389,2.6476,0.5715,0.1076,-6.1849,3.2199,0.247,3.4313,2.796,0.9761,-6.5289,1.3991,0.284,0.989674,0,1698375260.1114,92
-0.4757,-2.2181,-0.0455,1.5829,-0.367,0.8206,3.7178,1.7524,7.3078,2.8252,2.4456,0.585,-0.1052,-5.9976,3.0658,0.3995,2.9814,2.6155,1.0262,-6.2501,1.3841,0.4306,0.991978,0,1698375260.1218,93
-0.4934,-2.1297,-0.0302,1.4852,-0.3981,1.16,3.6834,1.8107,7.334,2.7717,2.2222,0.9739,-0.3379,-5.9022,2.9272,0.5372,2.4078,2.4515,1.0497,-6.1026,1.4005,0.5825,0.993769,0,1698375260.131,94
-0.5077,-1.9724,-0.0176,1.3842,-0.407,1.5165,3.5381,1.9583,7.3254,2.5872,1.8927,1.3603,-0.3856,-5.7895,2.8788,0.56,1.797,2.2943,0.9947,-6.0176,1.3822,0.7334,0.99516,0,1698375260.1401,95
-0.5197,-1.7618,-0.0059,1.3125,-0.5204,1.8991,3.3239,2.1468,7.3075,2.3268,1.6351,1.2148,-0.3835,-5.8127,2.946,0.505,1.1768,2.0708,0.9238,-5.9832,1.2969,0.8321,0.996241,0,1698375260.1507,96
-0.5301,-1.5589,0.0061,1.2617,-0.651,2.3147,3.057,2.1881,7.3289,2.0962,1.5143,0.5538,-0.3248,-5.9638,2.9501,0.4556,0.6568,1.9875,0.839,-6.0219,1.2366,0.8719,0.99708,0,1698375260.1604,97
-0.5386,-1.3782,0.0178,1.2346,-0.7849,2.802,2.727,2.0743,7.3365,1.8855,1.3045,0.1835,-0.2843,-6.0528,2.8902,0.4429,0.3014,2.0251,0.7441,-6.134,1.2041,0.8795,0.997731,0,1698375260.17,98
-0.5448,-1.1858,0.0294,1.2201,-1.0006,3.3126,2.3368,2.0581,7.5168,1.6393,0.9414,0.4004,-0.2699,-6.1912,2.8485,0.4343,0.0339,1.9665,0.6721,-6.3494,1.1581,0.8732,0.998236,0,1698375260.1811,99
-0.5478,-0.9353,0.0407,1.1655,-0.9524,3.7458,1.9324,2.1074,7.5324,1.4101,0.5468,0.4863,-0.2025,-6.4042,2.8009,0.3876,-0.1815,1.8298,0.5855,-6.614,1.1055,0.8675,0.998629,0,1698375260.1903,0
-0.5477,-0.6856,0.0519,1.1073,-0.8256,4.0567,1.4802,2.0458,7.4753,1.2043,0.144,0.4958,-0.1109,-6.6408,2.7959,0.3398,-0.3821,1.6401,0.4977,-6.8813,1.0419,0.8662,0.998935,0,1698375260.2008,1
-0.5453,-0.4611,0.0629,1.0816,-0.9001,4.1747,1.0011,1.7681,7.8155,1.0559,-0.197,0.28,0.0139,-6.901,2.7876,0.3126,-0.4979,1.4467,0.4211,-7.1346,0.9551,0.8519,0.999173,0,1698375260.2108,2
-0.5398,-0.1967,0.0735,1.0764,-1.0414,4.3421,0.5071,1.5714,7.7229,0.9965,-0.4507,0.085,0.1279,-7.1173,2.8158,0.3069,-0.4548,1.2906,0.4033,-7.419,0.8021,0.8857,0.999357,0,1698375260.2202,3
-0.5302,0.0865,0.0839,1.0943,-1.314,4.5106,-0.0265,1.4948,7.5858,0.8775,-0.63,-0.1328,0.2097,-7.3465,2.8511,0.2721,-0.2961,1.0781,0.4807,-7.7484,0.6304,0.9646,0.999499,0,1698375260.2306,4
-0.5158,0.4189,0.0945,1.1411,-1.3953,4.5263,-0.5314,1.2043,7.4684,0.708,-0.7538,-0.4699,0.2365,-7.656,2.8956,0.2488,-0.1464,0.7495,0.6047,-8.0914,0.5585,1.0558,0.999604,0,1698375260.2405,5
-0.4973,0.7861,0.1057,1.1959,-1.3085,4.5863,-0.9891,0.9173,7.243,0.6357,-0.9148,-0.886,0.2147,-8.0087,2.9732,0.3293,-0.0992,0.3937,0.7232,-8.4305,0.5842,1.2172,0.999666,0,1698375260.2505,6
-0.4762,1.0801,0.1176,1.2369,-0.9539,4.6167,-1.3515,0.6507,7.1315,0.784,-1.0978,-1.3728,0.1851,-8.4039,3.0707,0.4722,-0.2193,0.0414,0.7794,-8.7845,0.6533,1.4589,0.999679,0,1698375260.2602,7
-0.4538,1.2776,0.1303,1.2743,-0.5514,4.682,-1.6449,0.309,7.0613,0.8169,-1.2237,-1.8097,0.2012,-8.8061,3.1525,0.6218,-0.5001,-0.1853,0.7898,-9.1402,0.7709,1.7474,0.999635,0,1698375260.2703,8
-0.4316,1.453,0.1433,1.3193,-0.1468,4.7354,-1.8233,0.0331,7.4349,0.7555,-1.2712,-2.1602,0.2461,-9.2187,3.2292,0.7657,-0.9022,-0.1603,0.7485,-9.4686,0.879,1.9944,0.999448,0,1698375260.2801,9
-0.4114,1.5663,0.1559,1.3461,0.6003,4.5126,-1.8588,-0.395,8.1781,0.8584,-1.2937,-2.3284,0.3287,-9.6442,3.3355,0.858,-1.3671,0.0202,0.6321,-9.8332,0.939,2.1622,0.994307,0,1698375260.2908,10
-0.3964,1.4986,0.1679,1.3441,1.4525,4.1129,-1.7645,-1.1265,8.9283,1.054,-1.2855,-2.3534,0.4628,-10.0493,3.4427,0.9222,-1.8348,0.3351,0.482,-10.2113,0.9649,2.287,0.809657,0,1698375260.3005,10
-0.3894,1.228,0.1787,1.3172,2.1281,3.7684,-1.5439,-1.6322,9.5984,1.118,-1.2136,-2.3745,0.6129,-10.4014,3.5462,0.951,-2.077,0.595,0.2606,-10.5491,0.9405,2.3654,0.452643,0,1698375260.3114,11
-0.3902,0.8788,0.1881,1.2077,2.4372,3.4096,-1.2114,-1.8975,10.2461,0.8323,-1.1049,-2.3475,0.7593,-10.6729,3.6507,0.9348,-2.0282,0.3444,0.1167,-10.8904,0.8739,2.4657,0.139318,0,1698375260.3217,12
-0.3953,0.5288,0.1954,1.0709,2.5998,2.9451,-0.804,-2.1556,10.6051,0.3938,-0.9983,-2.2592,0.8739,-10.8876,3.7332,0.957,-1.8276,-0.0522,0.0706,-11.1704,0.7696,2.5347,-0.108436,0,1698375260.3316,13
-0.4026,0.2078,0.2009,0.95,2.6766,2.5511,-0.3317,-2.0229,11.1312,-0.2022,-0.9411,-2.2485,0.9118,-11.0955,3.8096,1.067,-1.4663,-0.3782,0.0382,-11.386,0.7035,2.5047,-0.211649,0,1698375260.3412,14
-0.4106,-0.0126,0.2057,0.8364,2.6153,2.2843,0.2039,-1.482,11.7058,-0.6569,-0.9776,-2.4532,0.8415,-11.3415,3.96,1.2655,-1.1789,-0.8717,0.128,-11.6946,0.7166,2.5193,-0.070914,0,1698375260.3508,15
-0.4166,-0.0832,0.2094,0.7389,2.3299,2.0915,0.7555,-0.9562,12.1174,-0.5322,-1.1542,-2.8961,0.7333,-11.668,4.2752,1.4852,-1.1458,-1.5967,0.2907,-12.1508,0.8382,2.586,0.16603,0,1698375260.361,16
-0.4174,0.0074,0.2109,0.5853,1.6847,2.1156,1.1574,-0.3669,13.2012,-0.2421,-1.5317,-3.4991,0.7156,-11.9992,4.7755,1.6382,-1.3032,-2.6507,0.412,-12.6649,1.1382,2.6439,0.352025,0,1698375260.3704,17
-0.4116,0.1886,0.21,0.394,1.0677,2.0406,1.4415,-0.2888,14.1557,0.3676,-2.0542,-4.0356,0.8281,-12.1655,5.3566,1.5493,-1.5192,-3.6952,0.4576,-13.0515,1.5364,2.625,0.451832,0,1698375260.3807,18
-0.4003,0.3951,0.2057,0.1602,1.2011,1.8238,1.7014,-0.4354,13.3257,1.8245,-2.6066,-4.3578,0.9605,-12.106,5.8394,1.1702,-1.641,-4.2407,0.4598,-13.0965,1.9611,2.4064,0.478881,0,1698375260.3902,19
-0.3869,0.588,0.1947,-0.1847,1.5996,1.7347,1.8871,-0.2174,11.7901,3.1237,-3.0501,-4.4342,1.0012,-11.8244,6.0785,0.7237,-1.6683,-4.1411,0.4709,-12.812,2.3707,1.9608,0.535103,0,1698375260.4002,20
-0.3754,0.6784,0.1763,-0.5651,1.7464,1.4704,2.1872,-0.1563,11.7507,3.6781,-3.2719,-4.0103,1.0013,-11.3827,6.0524,0.3545,-1.7747,-3.6138,0.5766,-12.385,2.669,1.3683,0.62021,0,1698375260.4103,21
-0.3706,0.5855,0.1529,-0.9576,2.404,1.0281,2.8413,-0.6028,12.0769,4.4905,-3.2354,-3.1596,0.969,-10.9474,5.8737,0.0754,-1.8956,-2.9247,0.7755,-11.8053,2.8339,0.7025,0.694264,0,1698375260.4207,22
-0.3717,0.4134,0.127,-1.3188,2.7871,0.7076,3.5769,-1.1342,11.5204,5.4606,-2.9437,-2.3633,0.8655,-10.5275,5.6285,-0.1015,-2.0322,-2.2079,0.97,-11.1452,2.826,0.133,0.749811,0,1698375260.4308,23
-0.3721,0.3717,0.0993,-1.5835,2.4216,0.8515,4.1262,-0.6535,11.14,5.2113,-2.5799,-1.5411,0.7178,-10.092,5.3833,-0.2221,-2.1741,-1.6009,1.1501,-10.5986,2.6867,-0.2506,0.785018,0,1698375260.4402,24
-0.3675,0.4789,0.069,-1.9489,1.3946,1.2164,4.4547,-0.3871,10.6898,4.841,-2.3596,-0.9724,0.4693,-9.7014,5.2623,-0.381,-2.2434,-1.2138,1.3377,-10.1686,2.5718,-0.5001,0.813361,0,1698375260.4503,25
-0.3572,0.6813,0.0356,-2.425,0.2586,1.3055,4.416,-0.5428,10.1493,4.9859,-2.5481,-0.5477,0.1458,-9.347,5.2298,-0.5637,-2.4276,-0.8961,1.5993,-9.8427,2.5195,-0.5977,0.82217,0,1698375260.4603,26
-0.3442,0.9038,0.0001,-2.742,-0.2037,1.3389,4.2231,-0.4842,10.0119,5.093,-3.026,0.1325,-0.1267,-9.0393,5.2556,-0.741,-2.7266,-0.5948,1.9261,-9.6922,2.5588,-0.5327,0.789912,0,1698375260.4707,27
-0.331,1.004,-0.0358,-2.8577,-0.5738,1.503,3.9761,-0.4033,10.474,5.1677,-3.4185,0.6846,-0.3153,-8.8402,5.4135,-0.8685,-2.976,-0.4323,2.1415,-9.7014,2.779,-0.3817,0.733811,0,1698375260.4808,28
-0.3184,1.0499,-0.071,-2.9346,-0.8843,1.6687,3.682,-0.3579,11.2657,5.0635,-3.6552,1.0155,-0.4065,-8.8165,5.6613,-0.887,-3.0648,-0.3385,2.2109,-9.8639,3.088,-0.1693,0.684738,0,1698375260.4906,29
-0.3063,1.096,-0.1055,-3.0528,-1.2379,1.8162,3.3701,-0.4493,11.7616,4.9095,-3.7547,1.2469,-0.3673,-8.9589,5.8613,-0.8491,-3.0281,-0.3696,2.0483,-10.1501,3.3767,0.0762,0.64312,0,1698375260.5003,30
-0.2937,1.1457,-0.1394,-3.18,-1.5757,1.9103,2.9096,-0.4407,12.0426,4.5489,-3.716,1.557,-0.1767,-9.2254,5.8885,-0.8308,-2.721,-0.4653,1.7839,-10.496,3.3635,0.3559,0.605003,0,1698375260.5112,30
-0.2791,1.2467,-0.1723,-3.2869,-1.7102,1.8257,2.2989,-0.6395,11.9401,4.2915,-3.5318,1.9794,0.0787,-9.5393,5.7635,-0.8479,-2.1654,-0.5925,1.4533,-10.7881,3.0863,0.5522,0.566153,0,1698375260.522,31
-0.2623,1.3441,-0.2053,-3.3662,-1.7815,1.605,1.5978,-0.896,11.6742,3.9512,-3.3239,2.2027,0.2992,-9.8048,5.5191,-0.8625,-1.629,-0.7382,1.0398,-10.8392,2.824,0.5318,0.524182,0,1698375260.5315,32
-0.2457,1.431,-0.2367,-3.3023,-1.6476,1.3235,0.8462,-0.9902,11.2467,3.4184,-3.1352,2.2466,0.433,-9.9768,5.1858,-0.806,-1.1638,-0.8667,0.7185,-10.6792,2.5299,0.4786,0.48049,0,1698375260.5411,33
-0.2297,1.5392,-0.2638,-3.1238,-1.5207,1.0564,0.0613,-1.0252,10.5639,3.0878,-2.9,2.2747,0.4449,-10.0056,4.79,-0.6899,-0.8852,-0.8523,0.446,-10.3972,2.1782,0.4097,0.435892,0,1698375260.5506,34
-0.2126,1.6577,-0.2893,-3.0013,-1.4246,0.7245,-0.7512,-1.0612,9.9892,2.8843,-2.6124,2.1883,0.3144,-9.8778,4.337,-0.5784,-0.99,-0.0299,0.2539,-10.0032,1.7861,0.2313,0.392533,0,1698375260.5616,35
-0.1931,1.7453,-0.3156,-2.8586,-1.1651,0.2724,-1.5485,-1.2519,9.4843,2.6947,-2.3184,2.1443,0.0486,-9.6283,3.9036,-0.4498,-0.8669,0.7266,0.0792,-9.4931,1.4305,0.1941,0.319349,0,1698375260.5714,36
-0.1721,1.8143,-0.3403,-2.7488,-0.9754,-0.1052,-2.3024,-1.4837,9.0376,2.4388,-2.038,2.2941,-0.2977,-9.2492,3.5616,-0.3133,-0.4927,1.0917,-0.0549,-8.9492,1.1813,0.3996,0.218535,0,1698375260.5812,37
-0.1513,1.9075,-0.3614,-2.6538,-0.7684,-0.4283,-2.997,-1.5445,8.7045,2.1252,-1.7282,2.6925,-0.6518,-8.7269,3.2809,-0.2097,-0.588,1.7144,-0.0985,-8.4155,0.9883,0.6335,0.131047,0,1698375260.5902,38
-0.1309,2.0193,-0.3811,-2.4614,-0.4739,-0.8131,-3.5911,-1.6575,8.4124,1.9498,-1.3231,3.2858,-0.9627,-8.1001,3.0488,-0.1321,-0.7796,2.2357,-0.2355,-7.8622,0.8434,0.8131,-0.024127,0,1698375260.601,39
-0.1103,2.0832,-0.4005,-2.2716,-0.1454,-1.2185,-4.0355,-1.8089,8.1676,1.8074,-0.8652,3.9818,-1.2391,-7.4617,2.8771,-0.066,-0.8058,2.678,-0.445,-7.3328,0.7584,0.9557,-0.236192,0,1698375260.6106,40
-0.0903,2.0359,-0.4186,-2.1376,0.0884,-1.5794,-4.3389,-1.8626,7.8855,1.6548,-0.4858,4.7397,-1.4555,-6.8694,2.7186,0.007,-0.7826,3.1733,-0.5992,-6.8075,0.7226,1.1254,-0.406727,0,1698375260.6206,41
-0.0714,1.9309,-0.4357,-2.0653,0.2079,-1.8835,-4.5175,-1.8204,7.3716,1.5873,-0.1936,5.383,-1.5878,-6.3328,2.5748,0.0757,-0.3905,3.3747,-0.6619,-6.3329,0.6841,1.1785,-0.539187,0,1698375260.6311,42
-0.0529,1.8384,-0.452,-2.0285,0.2231,-2.1939,-4.5736,-1.7117,6.934,1.5793,-0.0101,5.5587,-1.6616,-5.914,2.4397,0.1291,0.208,3.1622,-0.8094,-5.9103,0.6662,1.2425,-0.642071,0,1698375260.6404,43
-0.0357,1.8133,-0.4672,-1.9903,0.2426,-2.5663,-4.4918,-1.697,6.6189,1.6254,-0.0491,5.3058,-1.6413,-5.5686,2.2821,0.1944,0.6056,2.7816,-1.0714,-5.5681,0.6957,1.3906,-0.721985,0,1698375260.6505,44
-0.0203,1.7649,-0.4814,-1.8787,0.262,-2.9501,-4.3065,-1.718,6.3266,1.6241,-0.2447,4.737,-1.5463,-5.2541,2.0485,0.2582,0.7423,2.341,-1.3073,-5.3558,0.7118,1.4575,-0.784057,0,1698375260.6609,45
-0.0066,1.6366,-0.4941,-1.7274,0.1799,-3.3854,-4.0347,-1.7671,6.2567,1.5726,-0.5534,3.9764,-1.3695,-5.0616,1.8173,0.3088,0.6687,1.9162,-1.5494,-5.2077,0.7094,1.4903,-0.832271,0,1698375260.6709,46
0.0049,1.4867,-0.5051,-1.5811,0.0846,-3.8683,-3.6813,-1.8807,6.2542,1.5293,-0.789,3.3832,-1.2048,-5.0164,1.7262,0.3347,0.5126,1.518,-1.7433,-5.1566,0.6819,1.4799,-0.86972,0,1698375260.6803,47
0.014,1.3437,-0.5141,-1.4169,-0.0619,-4.2963,-3.2926,-2.0405,6.1898,1.4722,-0.8518,2.9257,-1.1127,-5.0841,1.7284,0.3105,0.2874,1.2147,-1.8667,-5.2048,0.6875,1.432,-0.898808,0,1698375260.6909,48
0.0212,1.1983,-0.5211,-1.2374,-0.3375,-4.6347,-2.8918,-2.0997,6.3314,1.3458,-0.84,2.6292,-1.0463,-5.2536,1.7702,0.2986,0.1304,1.0422,-1.9174,-5.4181,0.6854,1.3953,-0.921401,0,1698375260.7011,49
0.0268,1.0392,-0.5258,-1.0507,-0.7042,-4.8592,-2.468,-2.0192,6.6875,1.0811,-0.7022,2.5293,-1.0322,-5.4878,1.857,0.3065,0.0204,0.9108,-1.9695,-5.7949,0.6496,1.4227,-0.93895,0,1698375260.711,50
0.0318,0.9357,-0.5274,-0.8311,-1.006,-5.0046,-2.0204,-1.9215,6.985,0.7392,-0.5015,2.4577,-1.0093,-5.7761,1.9928,0.2982,-0.1588,0.7763,-2.0109,-6.1454,0.6849,1.4378,-0.95258,0,1698375260.7204,50
0.0377,0.8787,-0.5264,-0.5991,-1.2106,-5.1371,-1.5875,-1.9001,7.1089,0.4916,-0.3353,2.3697,-0.9838,-6.1163,2.2022,0.3059,-0.2426,0.6582,-1.9876,-6.5138,0.8079,1.3712,-0.963168,0,1698375260.731,51
0.0452,0.8817,-0.5227,-0.3368,-1.3951,-5.2708,-1.1703,-1.8575,7.4999,0.3233,-0.2642,2.2484,-0.9871,-6.469,2.4787,0.3317,-0.3205,0.69,-1.9022,-6.9638,0.9402,1.3997,-0.971391,0,1698375260.7411,52
0.0542,0.9327,-0.5147,-0.0324,-1.3399,-5.3396,-0.692,-1.8274,7.6165,0.3275,-0.2959,2.1074,-1.028,-6.8141,2.8058,0.3648,-0.4159,0.5546,-1.7549,-7.4175,1.0907,1.5701,-0.977779,0,1698375260.7505,53
0.0641,1.0105,-0.5011,0.2956,-1.3558,-5.105,-0.1356,-1.5904,7.2111,0.28,-0.4057,1.9757,-1.11,-7.1716,3.1312,0.4012,-0.3622,0.2039,-1.5851,-7.8422,1.2311,1.7357,-0.98274,0,1698375260.76,54
0.0749,1.1098,-0.4815,0.7554,-1.4371,-4.6212,0.4508,-0.9579,6.9097,0.0836,-0.508,1.7346,-1.2154,-7.5493,3.4157,0.4466,-0.2378,-0.1869,-1.414,-8.2655,1.3512,1.8707,-0.986594,0,1698375260.7706,55
0.0868,1.187,-0.4575,1.1867,-1.1756,-4.2956,0.9907,-0.496,6.9096,0.1317,-0.4929,1.364,-1.2931,-7.9095,3.6731,0.4912,-0.0227,-0.8347,-1.3152,-8.6529,1.5201,1.9902,-0.989587,0,1698375260.7802,56
0.0995,1.2484,-0.4316,1.5401,-0.6538,-4.1297,1.4433,-0.3649,7.3154,0.2316,-0.3057,1.0327,-1.3023,-8.2328,3.9085,0.5211,0.1264,-1.2476,-1.2462,-8.9407,1.7253,2.1446,-0.991823,0,1698375260.7906,57
0.1127,1.3082,-0.4063,1.8259,-0.038,-3.9582,1.7812,-0.331,7.6881,0.2855,-0.0102,0.7916,-1.2609,-8.5484,4.1409,0.5694,-0.0091,-1.1891,-1.1448,-9.207,1.9392,2.3518,-0.993555,0,1698375260.8007,58
0.1263,1.3312,-0.3833,1.9473,0.4982,-3.8488,1.9243,-0.333,8.424,0.423,0.2499,0.5873,-1.1963,-8.8801,4.3815,0.671,-0.2295,-1.268,-1.0712,-9.5226,2.1168,2.5366,-0.99499,0,1698375260.8114,59
0.1396,1.3234,-0.365,1.854,0.8628,-3.5713,1.923,-0.3747,8.9335,0.4432,0.4435,0.3195,-1.1095,-9.2256,4.5836,0.8248,-0.4892,-1.5415,-1.0242,-9.8415,2.2342,2.6799,-0.996109,0,1698375260.8214,60
0.1513,1.2871,-0.3561,1.4877,1.0062,-3.0907,1.8436,-0.2018,9.8547,0.5035,0.633,-0.0505,-0.9611,-9.5569,4.7058,0.9694,-0.8478,-1.6637,-0.9485,-10.1411,2.3121,2.7145,-0.996978,0,1698375260.8304,61
0.1602,1.1859,-0.3577,0.9943,1.1312,-2.7294,1.5867,0.1237,11.4098,0.6193,0.8245,-0.4332,-0.7257,-9.819,4.8189,1.055,-1.1033,-1.7048,-0.8489,-10.4684,2.3284,2.6448,-0.997649,0,1698375260.8406,62
0.1674,1.0762,-0.3662,0.5058,1.1141,-2.3737,1.1077,0.5686,12.5468,0.3431,0.9537,-0.7408,-0.4295,-10.0046,4.9554,1.0787,-1.1356,-1.793,-0.774,-10.8175,2.293,2.6062,-0.914181,0,1698375260.8507,63
0.1734,0.9571,-0.3789,0.0483,0.8988,-1.9296,0.4868,0.8631,13.4888,-0.356,0.87,-0.9856,-0.1381,-10.1568,5.1347,1.0741,-1.0268,-1.9562,-0.7005,-11.1255,2.2794,2.6768,-0.711729,0,1698375260.8613,64
0.1779,0.8108,-0.3927,-0.3274,0.6967,-1.6229,-0.2247,0.7854,14.1446,-1.103,0.5152,-1.2635,0.0576,-10.3347,5.3515,1.0708,-0.8555,-2.2115,-0.5471,-11.4367,2.3175,2.8764,-0.504041,0,1698375260.8706,65
0.1813,0.6864,-0.4047,-0.4971,0.596,-1.47,-0.9878,0.6688,14.6432,-1.4177,0.0019,-1.58,0.1678,-10.6265,5.5067,1.0579,-0.6883,-2.5957,-0.2942,-11.8745,2.3227,3.1493,-0.349627,0,1698375260.8808,66
0.1843,0.5923,-0.4094,-0.4023,0.3251,-0.9498,-1.5268,0.0552,14.7667,-1.2389,-0.5622,-1.9263,0.2679,-11.1079,5.56,1.0352,-0.5644,-3.1548,-0.0534,-12.3857,2.1742,3.3947,-0.237711,0,1698375260.8904,67
0.1864,0.4765,-0.4041,-0.1171,0.1335,-0.6532,-1.8339,-1.0241,14.4438,-0.4617,-1.1026,-2.3164,0.3934,-11.7573,5.5369,0.9778,-0.475,-3.6675,0.0688,-12.798,1.8803,3.5124,-0.159753,0,1698375260.9001,68
0.1861,0.327,-0.3908,0.2736,0.2335,-0.5974,-2.1687,-1.2279,13.5019,0.6926,-1.4728,-2.7003,0.5019,-12.3981,5.4123,0.7814,-0.3041,-3.937,0.0504,-13.0244,1.4807,3.403,-0.107308,0,1698375260.9102,69
0.1817,0.0946,-0.3722,0.6523,0.6069,-0.3888,-2.5319,-0.6875,12.5305,1.824,-1.5201,-2.8987,0.5547,-12.8669,5.1037,0.3731,-0.0044,-4.0177,-0.0695,-13.0407,1.104,3.0869,-0.071822,0,1698375260.9209,70
0.172,-0.2502,-0.3521,0.9416,1.271,-0.2055,-2.8532,-0.448,11.897,3.1359,-1.2842,-2.9498,0.617,-13.1087,4.6458,-0.2009,0.1322,-3.8009,-0.2615,-12.8352,0.9491,2.6842,-0.047117,0,1698375260.9306,70
0.1563,-0.6523,-0.3351,1.0377,1.6598,0.1645,-3.0967,-0.357,11.5218,4.1845,-0.8419,-2.9221,0.6244,-13.0292,4.1974,-0.7564,0.0379,-3.1757,-0.4806,-12.5238,0.8779,2.2664,-0.027863,0,1698375260.9403,71
0.1356,-1.0562,-0.3268,0.87,2.2636,0.2941,-3.4163,-0.6737,11.429,4.3922,-0.171,-2.6322,0.5391,-12.578,3.7778,-1.203,-0.1631,-2.2077,-0.6848,-12.1,0.7609,1.9018,-0.010435,0,1698375260.9511,72
0.1113,-1.4164,-0.3272,0.6386,2.4819,0.5985,-3.8844,-0.9784,11.2243,4.2505,0.684,-2.1096,0.4949,-11.8274,3.3676,-1.5588,-0.2885,-1.196,-0.8459,-11.5938,0.6342,1.5442,0.004746,0,1698375260.9609,73
0.0854,-1.7397,-0.3297,0.4679,2.3925,0.7319,-4.2548,-1.2232,10.651,4.4708,1.5843,-1.5733,0.4998,-10.9919,3.0525,-1.8183,-0.0996,-0.4204,-0.9123,-11.1533,0.477,1.1826,-0.090052,0,1698375260.9707,74
0.0575,-2.0863,-0.3282,0.4378,2.2157,0.4707,-4.2425,-1.9203,10.731,4.1678,2.3721,-0.9803,0.49,-10.2534,2.8436,-1.9835,0.388,0.2179,-0.8131,-10.7984,0.279,0.8574,-0.268065,0,1698375260.9804,75
0.0259,-2.3636,-0.32,0.6143,1.8678,0.2678,-3.8615,-3.2887,10.9264,3.6392,2.9023,-0.6237,0.496,-9.676,2.6701,-2.0476,1.0394,0.7409,-0.557,-10.5085,0.0658,0.5994,-0.204356,0,1698375260.9914,76
-0.0096,-2.5247,-0.3064,0.89,1.434,0.256,-3.3499,-4.1321,10.3729,2.9766,3.1683,-0.7745,0.5646,-9.304,2.4792,-2.009,1.6732,1.119,-0.2405,-10.2243,-0.1203,0.4551,0.05432,0,1698375261.0003,77
-0.045,-2.695,-0.2898,1.1356,0.861,0.0184,-2.8519,-4.0007,10.4198,2.1986,3.1764,-1.0101,0.7022,-9.12,2.3288,-1.8836,2.1203,1.4434,0.0471,-9.9308,-0.2264,0.4137,0.182876,0,1698375261.0106,78
-0.0783,-2.7733,-0.273,1.2975,0.8659,-0.5948,-2.3774,-4.18,10.7013,2.3003,3.2066,-1.2281,0.7904,-9.2132,2.3093,-1.656,2.4463,1.5146,0.3062,-9.7692,-0.2748,0.432,0.237198,0,1698375261.0204,79
-0.1108,-2.7438,-0.2574,1.3456,0.7751,-1.1077,-1.9125,-4.1892,10.9603,2.6529,3.3885,-1.6555,0.7907,-9.5432,2.366,-1.3838,2.7626,1.2709,0.4666,-9.7855,-0.2515,0.4935,0.346778,0,1698375261.0309,80
-0.142,-2.777,-0.2427,1.3761,0.5069,-1.5964,-1.4168,-3.7347,11.3362,2.7576,3.4616,-1.8887,0.7969,-9.8642,2.4801,-1.1772,3.1582,0.837,0.3901,-9.9001,-0.1359,0.6324,0.474769,0,1698375261.04,81
-0.1724,-2.8558,-0.2278,1.4601,0.3335,-1.9258,-0.886,-3.0182,11.0146,2.9122,3.4912,-1.6497,0.8102,-10.0657,2.674,-1.0633,3.6274,0.2708,0.0997,-10.0104,0.0446,0.7932,0.586821,0,1698375261.0515,82
-0.2037,-2.9137,-0.2116,1.4918,0.053,-2.1287,-0.3442,-1.864,10.6603,3.0336,3.6223,-1.2161,0.824,-10.1179,2.8978,-1.0659,3.9961,-0.2074,-0.2255,-10.0507,0.2732,0.8981,0.675681,0,1698375261.0612,83
-0.2343,-2.8954,-0.1956,1.4945,-0.0489,-2.2907,0.2521,-0.7922,10.4551,2.9408,3.8733,-0.8818,0.8466,-9.9741,3.0854,-1.1558,4.1709,-0.3948,-0.456,-10.0293,0.5168,0.9071,0.746538,0,1698375261.0712,84
-0.2629,-2.8115,-0.1801,1.5552,-0.0965,-2.2485,0.8687,-0.0941,10.0287,2.8366,4.1169,-0.6751,0.8769,-9.5801,3.177,-1.2348,4.2121,-0.2395,-0.5575,-9.8898,0.7386,0.8315,0.802443,0,1698375261.0807,85
-0.291,-2.7098,-0.1637,1.633,-0.2034,-2.0224,1.4883,0.413,9.7491,2.6453,4.2481,-0.4369,0.5954,-9.0833,3.292,-1.1962,4.1494,0.2646,-0.4761,-9.6192,0.9256,0.7531,0.846251,0,1698375261.0914,86
-0.3192,-2.5925,-0.1464,1.6642,-0.1892,-1.7888,2.0871,0.5806,9.1984,2.5141,4.3253,-0.4394,0.5038,-8.6287,3.4019,-1.0668,3.9994,0.9758,-0.2799,-9.2449,1.0946,0.6892,0.880451,0,1698375261.102,87
-0.3473,-2.5634,-0.1289,1.7036,-0.1833,-1.4735,2.6375,0.6525,8.491,2.4411,4.26,-0.6134,0.6652,-8.1636,3.4344,-0.9125,3.8751,1.7122,-0.0952,-8.7793,1.2205,0.6042,0.907076,0,1698375261.1118,88
-0.3726,-2.5349,-0.1121,1.7216,-0.0706,-1.1648,3.1629,0.6568,7.7436,2.592,4.0712,-0.6302,0.546,-7.68,3.4356,-0.6925,3.7667,2.5168,0.1327,-8.263,1.1468,0.5658,0.927775,0,1698375261.1214,89
-0.3954,-2.4855,-0.0961,1.6853,0.0136,-0.8082,3.606,0.7416,7.232,2.7058,3.8939,-0.5529,0.4006,-7.2311,3.398,-0.4243,3.6297,3.1324,0.3105,-7.7376,1.086,0.4513,0.943877,0,1698375261.1305,90
-0.4169,-2.5012,-0.08,1.7139,-0.1033,-0.3829,3.9331,0.8997,7.2074,2.6848,3.7187,-0.4068,0.297,-6.8503,3.3209,-0.1817,3.3707,3.4436,0.4862,-7.2721,1.1489,0.2866,0.956401,0,1698375261.1409,90
-0.4376,-2.4759,-0.063,1.7649,-0.0817,-0.1515,4.1608,0.8255,7.7039,2.559,3.6022,-0.1867,0.2405,-6.5207,3.1879,0.0673,2.9965,3.6444,0.6925,-6.8587,1.139,0.2143,0.966132,0,1698375261.1507,91
-0.4568,-2.3467,-0.0462,1.7469,-0.0095,-0.1455,4.2763,0.7799,8.1631,2.2685,3.5475,0.0864,0.1812,-6.2395,3.0278,0.3011,2.6812,3.6196,0.8246,-6.5066,1.073,0.1879,0.973692,0,1698375261.1602,92
-0.4738,-2.1896,-0.0299,1.7047,-0.1605,0.1156,4.2535,1.0294,8.1405,2.0114,3.5016,0.2372,-0.1436,-6.1683,3.057,0.4525,2.4832,3.3806,0.8812,-6.2331,1.01,0.2731,0.979563,0,1698375261.1707,93
-0.4893,-2.0272,-0.0142,1.7047,-0.1653,0.534,4.119,1.2582,7.9262,1.9351,3.351,0.5095,-0.4665,-6.2085,3.0574,0.5394,2.3728,2.981,0.8433,-6.0693,0.9929,0.438,0.98412,0,1698375261.1804,94
-0.5027,-1.8354,0.0007,1.7047,-0.1068,0.8462,3.9047,1.3833,7.605,1.9705,2.9655,0.8854,-0.4097,-6.0555,2.8148,0.6036,2.0527,2.605,0.7696,-6.011,0.9983,0.6,0.987634,0,1698375261.1914,95
-0.5144,-1.6451,0.0153,1.644,-0.1705,1.2642,3.6001,1.6325,7.3202,1.9811,2.6081,0.8357,-0.3034,-5.9153,2.6261,0.6217,1.6166,2.2729,0.6672,-6.0141,0.9877,0.6788,0.990334,0,1698375261.2018,96
-0.524,-1.4555,0.0288,1.5665,-0.2523,1.6776,3.1871,1.825,7.392,1.9825,2.3553,0.4485,-0.277,-5.7992,2.5591,0.5981,1.2753,1.9775,0.3354,-6.0924,0.9737,0.7087,0.992425,0,1698375261.2112,97
-0.5307,-1.2563,0.0396,1.4847,-0.3585,2.1077,2.7164,1.7925,7.6765,1.8886,2.0012,-0.1062,-0.1841,-5.7694,2.5488,0.5664,1.0597,1.7463,0.0359,-6.2391,0.9845,0.7023,0.994084,0,1698375261.2206,98
-0.5352,-1.0657,0.0494,1.3746,-0.625,2.6523,2.1999,1.8555,7.8424,1.7529,1.6648,-0.1416,-0.1376,-5.9,2.6526,0.5821,1.0004,1.5548,0.059,-6.4088,0.9869,0.6762,0.995405,0,1698375261.2306,99
-0.5378,-0.8681,0.0591,1.2483,-0.9547,3.1503,1.6692,1.8427,8.265,1.6999,1.3414,0.188,-0.1124,-6.0343,2.7847,0.6075,0.9475,1.3813,0.1536,-6.5901,0.9821,0.696,0.996431,0,1698375261.2403,0
-0.5373,-0.625,0.0685,1.157,-1.1469,3.532,1.2264,1.71,8.3325,1.3957,1.0006,0.2121,0.017,-6.2209,2.8601,0.5803,0.9559,1.1784,0.2586,-6.824,0.9841,0.713,0.997228,0,1698375261.2503,1
-0.534,-0.3862,0.0777,1.0912,-1.3619,3.8659,0.7741,1.7273,8.1598,0.9435,0.7215,0.1968,0.1388,-6.4056,2.9432,0.5515,1.045,1.0813,0.4015,-7.1197,0.9444,0.7564,0.997847,0,1698375261.26,2
-0.5274,-0.1186,0.0872,1.0349,-1.7282,4.1577,0.2124,1.6511,8.2656,0.7106,0.4723,0.167,0.2156,-6.6424,2.9835,0.5195,1.1143,1.0306,0.5935,-7.4293,0.8676,0.8601,0.998327,0,1698375261.2701,3
-0.5162,0.2482,0.097,1.0182,-1.8849,4.3545,-0.3458,1.3389,8.1512,0.5188,0.2438,0.0016,0.2505,-6.9613,3.0057,0.4931,1.1212,0.9094,0.7784,-7.6728,0.8435,1.0054,0.9987,0,1698375261.2804,4
-0.5004,0.5849,0.1077,1.0645,-1.7868,4.5065,-0.8748,1.0338,7.8043,0.3316,0.0212,-0.2394,0.2546,-7.3475,3.0299,0.5049,1.049,0.7114,0.9416,-7.9255,0.8707,1.1685,0.998987,0,1698375261.2907,5
-0.4811,0.8507,0.1191,1.1256,-1.4898,4.6229,-1.3803,0.834,7.4537,0.3436,-0.2387,-0.4326,0.2526,-7.8214,3.0644,0.5848,0.8899,0.5549,1.0666,-8.2511,0.9251,1.3339,0.999209,0,1698375261.3002,6
-0.46,1.1374,0.1311,1.1588,-1.064,4.7116,-1.7618,0.4823,7.4991,0.5218,-0.5011,-0.5119,0.2835,-8.3259,3.1492,0.7117,0.6222,0.5544,1.1485,-8.6286,0.9817,1.4995,0.999383,0,1698375261.3102,7
-0.4389,1.3528,0.1437,1.2094,-0.5194,4.8844,-1.9713,0.1878,7.7314,0.4748,-0.6707,-0.5803,0.3424,-8.8296,3.2397,0.8406,0.2209,0.5779,1.1557,-8.9937,1.0879,1.6565,0.999518,0,1698375261.3204,8
-0.4194,1.4662,0.1564,1.2263,0.3161,5.0485,-2.0121,-0.0826,8.1521,0.4492,-0.7829,-0.7459,0.3839,-9.3599,3.3375,0.9686,-0.2178,0.7248,1.0575,-9.4133,1.2076,1.8461,0.999625,0,1698375261.3304,9
-0.404,1.4148,0.1689,1.1913,1.276,4.8112,-1.9185,-0.5231,8.4657,0.8265,-0.9042,-0.9657,0.4145,-9.9247,3.4646,1.0685,-0.7222,1.0528,1.0927,-9.9542,1.2343,2.0358,0.999708,0,1698375261.3414,10
-0.3953,1.1942,0.1806,1.1514,1.7993,4.3449,-1.672,-1.2391,9.2789,0.9245,-1.0162,-1.1825,0.4629,-10.4671,3.5985,1.1234,-1.1532,1.3494,0.9165,-10.4683,1.2857,2.1115,0.999071,0,1698375261.3503,11
-0.3936,0.9273,0.1908,1.0768,2.0506,3.975,-1.2555,-2.135,10.4518,0.3535,-1.0377,-1.367,0.5269,-10.9226,3.7226,1.1359,-1.3013,1.4877,0.4089,-10.942,1.2461,2.2412,0.813799,0,1698375261.3604,12
-0.396,0.6487,0.199,0.9673,2.1895,3.5411,-0.7897,-2.709,11.2225,-0.4554,-0.929,-1.4703,0.6022,-11.2812,3.8125,1.1196,-1.3251,1.2823,0.0103,-11.3925,1.0559,2.4913,0.447365,0,1698375261.3708,13
-0.4006,0.3808,0.2057,0.8889,2.3512,3.0557,-0.2848,-2.8996,11.9309,-1.1494,-0.7705,-1.5276,0.6616,-11.5576,3.8832,1.1487,-1.3036,0.7879,-0.214,-11.7549,0.8799,2.707,0.12428,0,1698375261.3802,13
-0.4073,0.1562,0.2112,0.8174,2.3446,2.666,0.2395,-2.5299,12.5103,-1.8344,-0.6568,-1.7169,0.6429,-11.8236,3.9777,1.2733,-1.2094,0.138,-0.2374,-12.0763,0.7427,2.8469,-0.125534,0,1698375261.3914,14
-0.4134,0.0156,0.2158,0.7061,1.9032,2.3838,0.7055,-1.7186,13.1975,-2.2144,-0.6749,-2.1315,0.5185,-12.1192,4.1796,1.4439,-1.1302,-0.6539,-0.161,-12.4588,0.7334,2.9108,-0.315482,0,1698375261.4018,15
-0.415,0.0452,0.2188,0.5735,1.5186,2.1193,1.1979,-1.2916,13.8736,-2.1298,-0.9865,-2.7297,0.3639,-12.3852,4.5644,1.5756,-1.1155,-1.6645,-0.0309,-12.8552,0.9031,2.897,-0.347347,0,1698375261.4112,16
-0.4106,0.199,0.2195,0.4291,0.9045,2.0094,1.5701,-1.1617,14.324,-1.6933,-1.5676,-3.3187,0.2907,-12.4963,5.0344,1.5785,-1.111,-2.7434,0.1042,-13.133,1.2338,2.7754,-0.265572,0,1698375261.4203,17
-0.4012,0.3874,0.2177,0.2285,0.0816,2.1984,1.8235,-1.0108,14.2349,-0.5952,-2.1357,-3.6731,0.3122,-12.3686,5.4187,1.38,-1.0546,-3.5014,0.187,-13.1927,1.636,2.5502,-0.145226,0,1698375261.4307,18
-0.3881,0.6204,0.2114,-0.0882,-0.2014,2.4126,2.1719,-1.3226,13.0427,0.6586,-2.5608,-3.8223,0.3766,-12.0986,5.6797,1.0436,-1.0262,-3.8216,0.2453,-13.0035,2.0503,2.2318,0.006288,0,1698375261.4407,19
-0.3745,0.794,0.1975,-0.5271,0.1208,2.3326,2.4852,-1.7113,11.992,1.9513,-2.7709,-3.7362,0.4591,-11.7627,5.7799,0.6556,-1.2103,-3.7091,0.3247,-12.6711,2.433,1.7805,0.116611,0,1698375261.4505,20
-0.3657,0.7452,0.1763,-0.9693,0.2782,2.1734,2.6859,-1.5366,11.5956,3.6739,-2.7107,-3.3275,0.5351,-11.4037,5.7481,0.2863,-1.6525,-3.2203,0.4009,-12.2195,2.7088,1.1729,0.185856,0,1698375261.4602,21
-0.3648,0.5306,0.1508,-1.3651,-0.0342,2.0846,3.054,-1.0741,12.0671,4.1346,-2.451,-2.6344,0.6239,-11.0308,5.578,-0.0008,-2.2703,-2.4656,0.4464,-11.6011,2.8486,0.4829,0.225941,0,1698375261.4702,22
-0.368,0.3615,0.1224,-1.7828,-0.23,1.9211,3.6807,-1.3496,12.525,3.8682,-2.0379,-1.7849,0.6716,-10.5723,5.3483,-0.2348,-2.7757,-1.6963,0.5031,-10.9821,2.8341,-0.1587,0.270676,0,1698375261.4804,23
-0.3683,0.3688,0.0919,-2.1104,0.0023,1.5512,4.3065,-2.294,12.4866,3.8787,-1.6488,-0.9887,0.5876,-10.1172,5.2063,-0.4451,-2.9433,-1.1831,0.6477,-10.5223,2.7248,-0.5677,0.320776,0,1698375261.4904,24
-0.3618,0.5517,0.0586,-2.4446,0.0932,1.5119,4.5002,-2.2774,12.0957,3.2786,-1.5801,-0.4436,0.3392,-9.7038,5.1742,-0.6279,-2.8937,-0.9319,0.8145,-10.1498,2.652,-0.7919,0.361136,0,1698375261.5005,25
-0.3495,0.7658,0.0227,-2.8646,-0.4412,2.0344,4.3166,-1.3009,11.0352,3.0827,-1.9367,-0.0364,-0.0183,-9.3114,5.213,-0.813,-2.9038,-0.724,0.9816,-9.835,2.6748,-0.9112,0.3923,0,1698375261.5103,26
-0.3348,0.9256,-0.0141,-3.0732,-1.0582,2.3814,4.0513,-0.3831,10.8211,3.4895,-2.5715,0.429,-0.3751,-8.9692,5.3254,-0.96,-3.076,-0.4278,1.2,-9.6496,2.8587,-0.9128,0.36715,0,1698375261.5207,27
-0.3206,1.0115,-0.0499,-3.1625,-1.408,2.5598,3.766,0.103,11.3845,3.8767,-3.2138,0.8212,-0.6847,-8.7277,5.5509,-0.9867,-3.3104,-0.1373,1.3585,-9.597,3.1761,-0.8362,0.348711,0,1698375261.5304,28
-0.3076,1.0388,-0.0848,-3.3029,-1.5774,2.6788,3.5316,0.0089,12.0146,4.0776,-3.6513,1.1309,-0.886,-8.6554,5.7672,-0.9343,-3.4711,0.0977,1.4144,-9.7063,3.4574,-0.688,0.385401,0,1698375261.54,29
-0.295,1.0494,-0.12,-3.4531,-1.6561,2.7857,3.2132,-0.2948,12.1998,4.1978,-3.8181,1.5087,-0.9196,-8.7175,5.8435,-0.8882,-3.5687,0.1422,1.3546,-9.8776,3.5575,-0.4157,0.412733,0,1698375261.551,30
-0.2813,1.0947,-0.155,-3.475,-1.9176,2.8892,2.746,-0.5433,12.2966,4.0452,-3.75,2.0578,-0.7812,-8.8658,5.7259,-0.9457,-3.5422,0.1094,1.1753,-10.079,3.4166,-0.1412,0.430082,0,1698375261.5611,31
-0.2662,1.1722,-0.1896,-3.3619,-2.0192,2.8511,2.1752,-0.8758,12.1404,3.6974,-3.536,2.6743,-0.5383,-9.0756,5.4816,-1.078,-3.2021,-0.1444,1.1203,-10.2948,3.2831,-0.1652,0.437009,0,1698375261.5704,32
-0.2505,1.2707,-0.2232,-3.2655,-1.9593,2.7209,1.5035,-1.171,11.292,3.442,-3.3647,3.0731,-0.2729,-9.2978,5.1484,-1.1433,-2.7257,-0.5597,1.0086,-10.3277,3.1366,-0.1283,0.432669,0,1698375261.5817,33
-0.2337,1.3293,-0.2567,-3.1676,-1.9425,2.4511,0.6877,-1.2482,10.709,3.0156,-3.2913,3.2661,-0.1315,-9.4561,4.7516,-1.0885,-2.2671,-0.7553,0.7191,-10.155,2.7973,0.0166,0.417108,0,1698375261.5917,34
-0.2159,1.4048,-0.288,-3.1303,-1.8383,2.1188,-0.1735,-1.4306,10.2542,2.5831,-3.1652,3.3589,-0.1682,-9.4937,4.3721,-0.942,-1.8785,-0.7147,0.5265,-9.8238,2.4452,0.0017,0.376568,0,1698375261.6013,35
-0.1987,1.5665,-0.3138,-3.085,-1.587,1.7082,-1.029,-1.6553,9.4865,2.4283,-3.0622,3.2392,-0.1883,-9.3609,4,-0.8265,-1.9567,-0.1309,0.3991,-9.4241,2.0999,-0.0233,0.299441,0,1698375261.6102,36
-0.1815,1.6863,-0.3376,-2.9699,-1.252,1.1864,-1.8869,-1.7914,8.8386,2.3766,-2.914,3.0969,-0.226,-9.0552,3.6619,-0.6954,-2.3966,0.6447,0.192,-8.9466,1.6681,-0.044,0.17581,0,1698375261.6214,37
-0.1624,1.7369,-0.3619,-2.7835,-0.9756,0.7198,-2.6829,-1.9148,8.5109,2.0544,-2.5697,3.2769,-0.3311,-8.5997,3.349,-0.5247,-2.2756,1.1585,-0.0636,-8.429,1.2931,-0.1013,0.039711,0,1698375261.6319,38
-0.1417,1.786,-0.3846,-2.6231,-0.6851,0.3173,-3.382,-2.036,8.2433,1.7077,-2.0883,3.6493,-0.371,-8.0572,3.0605,-0.4308,-2.0061,1.8788,-0.1615,-7.9748,0.992,0.024,-0.069891,0,1698375261.6414,38
-0.1219,1.8428,-0.4045,-2.5234,-0.3895,-0.1266,-3.9737,-2.1018,7.9414,1.6423,-1.5525,4.0307,-0.3355,-7.5102,2.81,-0.4054,-1.9996,2.4869,-0.2094,-7.474,0.9567,0.2367,-0.217037,0,1698375261.6512,39
-0.1027,1.9143,-0.4217,-2.4134,-0.1838,-0.5787,-4.4264,-2.008,7.8135,1.6153,-0.9966,4.4914,-0.3642,-6.9944,2.6055,-0.3766,-1.8991,2.759,-0.4367,-6.9995,1.0146,0.4578,-0.390576,0,1698375261.6603,40
-0.0841,1.972,-0.4379,-2.2735,0.0637,-1.0492,-4.6826,-1.9574,7.5875,1.5053,-0.454,4.9778,-0.5067,-6.5329,2.4595,-0.3337,-1.9113,2.8365,-0.9651,-6.6114,0.9491,0.7894,-0.526618,0,1698375261.6706,41
-0.066,1.9584,-0.4541,-2.1235,0.3062,-1.58,-4.7265,-2.0961,7.2911,1.3029,-0.0436,5.2108,-0.6309,-6.1455,2.275,-0.3266,-1.7155,2.7535,-1.2895,-6.2516,0.84,0.9809,-0.63231,0,1698375261.6811,42
-0.048,1.9043,-0.4692,-2.017,0.5125,-2.0647,-4.5885,-2.3797,7.0572,1.0018,0.0203,4.7109,-0.534,-5.8243,2.0804,-0.3541,-1.2821,2.672,-1.2552,-5.9565,0.6946,1.0987,-0.714404,0,1698375261.6902,43
-0.0316,1.8255,-0.4831,-1.8892,0.6498,-2.4241,-4.3176,-2.477,6.7908,0.7011,-0.2257,3.9306,-0.3641,-5.6168,1.9848,-0.2598,-0.8595,2.2662,-1.2779,-5.7178,0.6249,1.2166,-0.77817,0,1698375261.7008,44
-0.0173,1.7554,-0.4957,-1.7405,0.6541,-2.7962,-3.9454,-2.3099,6.4427,0.7266,-0.4501,3.3765,-0.3677,-5.4989,1.9189,-0.1232,-0.4792,1.6765,-1.3655,-5.5443,0.5836,1.2775,-0.827698,0,1698375261.7117,45
-0.0035,1.6624,-0.5071,-1.5871,0.4299,-3.1721,-3.5275,-2.1109,6.3693,0.8217,-0.5945,3.0007,-0.4616,-5.4239,1.8503,-0.0532,-0.3185,1.3123,-1.3968,-5.4578,0.5705,1.2943,-0.866168,0,1698375261.7219,46
0.0082,1.5259,-0.517,-1.4342,0.1672,-3.5527,-3.0769,-2.0779,6.4783,0.7761,-0.705,2.8588,-0.5704,-5.4352,1.8403,0.0078,-0.635,1.3592,-1.2575,-5.47,0.5083,1.3431,-0.896049,0,1698375261.7312,47
0.0173,1.4053,-0.5242,-1.2688,-0.0582,-3.9677,-2.5879,-2.2552,6.5884,0.779,-0.7533,2.7425,-0.6728,-5.5073,1.8881,0.0136,-0.9312,1.5046,-1.2363,-5.6033,0.4783,1.438,-0.919258,0,1698375261.7402,48
0.025,1.2957,-0.5291,-1.0846,-0.2861,-4.3488,-2.088,-2.379,6.6151,0.7282,-0.7124,2.5935,-0.7659,-5.6509,1.9683,0.0084,-0.8894,1.4676,-1.242,-5.8696,0.4527,1.4411,-0.937285,0,1698375261.7508,49
0.0321,1.2002,-0.5317,-0.8791,-0.4717,-4.6371,-1.605,-2.2615,6.5337,0.6295,-0.5682,2.3984,-0.8246,-5.8686,2.0846,0.0381,-0.8092,1.3247,-1.2029,-6.1598,0.4996,1.4428,-0.951287,0,1698375261.7608,50
0.0393,1.1197,-0.5316,-0.6479,-0.7121,-4.7997,-1.1567,-1.9889,6.401,0.4838,-0.3598,2.1532,-0.8685,-6.1513,2.2773,0.0806,-0.5765,0.9359,-1.2697,-6.4718,0.6237,1.4914,-0.962163,0,1698375261.7703,51
0.0465,1.022,-0.5281,-0.3676,-0.9124,-4.8604,-0.7505,-1.8826,6.4826,0.3255,-0.1631,1.8741,-0.9188,-6.4593,2.5194,0.0955,-0.2304,0.3263,-1.2798,-6.82,0.7128,1.4404,-0.970611,0,1698375261.7806,52
0.0541,0.9388,-0.5198,-0.0022,-0.8806,-5.0106,-0.342,-1.8418,6.3632,0.3496,-0.0597,1.6207,-1.0005,-6.737,2.7706,0.0787,0.0673,-0.2623,-1.205,-7.1679,0.8326,1.3802,-0.977173,0,1698375261.7904,53
0.0627,0.9362,-0.5059,0.3733,-0.9078,-5.0438,0.103,-1.4929,6.1977,0.2822,-0.0902,1.3974,-1.1151,-7.0231,3.0121,0.0705,0.262,-0.7305,-1.0856,-7.5117,1.0063,1.42,-0.982269,0,1698375261.8007,54
0.0725,1.0105,-0.4865,0.813,-0.8898,-4.7781,0.5799,-1.0903,6.2165,0.2256,-0.1829,1.12,-1.2382,-7.3521,3.2762,0.1066,0.374,-1.067,-0.9791,-7.8322,1.2736,1.5394,-0.986228,0,1698375261.8107,55
0.0839,1.067,-0.4628,1.3138,-0.5886,-4.5479,1.0586,-0.9322,6.2855,0.2375,-0.2523,0.8193,-1.338,-7.6746,3.5522,0.1726,0.3826,-1.2678,-0.882,-8.1607,1.559,1.7083,-0.989303,0,1698375261.8207,56
0.0969,1.1327,-0.4367,1.7296,-0.1084,-4.3947,1.4909,-0.9162,6.5279,0.1972,-0.2551,0.5679,-1.3926,-7.9787,3.8208,0.2626,0.304,-1.3598,-0.7827,-8.5245,1.8271,1.8976,-0.991691,0,1698375261.8305,57
0.1108,1.2395,-0.4104,2.0191,0.4657,-4.193,1.8369,-0.8659,6.7723,0.2906,-0.1738,0.3854,-1.3915,-8.3114,4.0805,0.3871,0.1791,-1.3845,-0.6996,-8.9235,2.0675,2.0825,-0.993546,0,1698375261.8402,58
0.1251,1.3029,-0.386,2.177,0.9935,-4.0074,2.0127,-0.7966,7.7527,0.3844,-0.0365,0.2198,-1.3216,-8.6739,4.3046,0.5476,0.0122,-1.4181,-0.6538,-9.3198,2.2192,2.2472,-0.994987,0,1698375261.8514,59
0.1393,1.3357,-0.3653,2.0784,1.3267,-3.674,2.0505,-0.7959,9.0504,0.294,0.1094,0.0264,-1.1685,-9.0534,4.5001,0.7073,-0.2299,-1.5107,-0.6216,-9.7029,2.2923,2.349,-0.995967,0,1698375261.8617,60
0.1522,1.333,-0.3536,1.6871,1.7287,-3.1441,2.0381,-0.7005,10.5795,0.0471,0.2397,-0.1929,-0.9601,-9.3975,4.653,0.8303,-0.5194,-1.5962,-0.5532,-10.0658,2.3331,2.3609,-0.992865,0,1698375261.8718,61
0.1625,1.2643,-0.3535,1.1986,2.0333,-2.7324,1.8852,-0.3287,11.9853,-0.0211,0.3111,-0.4612,-0.7189,-9.6665,4.8172,0.8881,-0.8619,-1.6576,-0.5068,-10.4,2.3926,2.3505,-0.985613,0,1698375261.8819,62
0.1707,1.1597,-0.3619,0.6536,1.9486,-2.4195,1.4938,0.2367,12.8182,-0.0814,0.2839,-0.7659,-0.4473,-9.8648,5.0508,0.8451,-1.1355,-1.7776,-0.5006,-10.7144,2.4682,2.3918,-0.95074,0,1698375261.8917,63
0.1767,1.0307,-0.3755,0.1127,1.7524,-2.0666,0.8822,0.7061,13.4572,-0.5139,0.1043,-1.0571,-0.1724,-10.0376,5.2869,0.7855,-1.2254,-1.9766,-0.4797,-11.0075,2.5641,2.5356,-0.790007,0,1698375261.9019,63
0.1811,0.8933,-0.3905,-0.2551,1.2242,-1.5197,0.1992,0.6848,13.8768,-0.9559,-0.2781,-1.3779,0.0105,-10.2672,5.5097,0.79,-1.1656,-2.1507,-0.3841,-11.3199,2.6594,2.786,-0.561296,0,1698375261.9117,64
0.1853,0.7943,-0.4036,-0.4009,0.831,-1.2288,-0.547,0.2777,14.3807,-1.1955,-0.7421,-1.7924,0.0827,-10.6529,5.6689,0.7868,-1.0383,-2.4334,-0.2383,-11.7857,2.6586,3.0946,-0.389235,0,1698375261.9214,65
0.1887,0.693,-0.4084,-0.2929,0.4633,-0.9482,-1.0779,-0.5765,14.6409,-1.0633,-1.1494,-2.3052,0.114,-11.2275,5.7103,0.7598,-0.9087,-3.1966,-0.0646,-12.4164,2.4506,3.3894,-0.26468,0,1698375261.9313,66
0.1901,0.55,-0.4019,0.0557,0.0653,-0.692,-1.2994,-1.8705,14.5759,-0.5277,-1.5289,-2.833,0.1545,-11.9056,5.6331,0.7243,-0.7194,-4.253,0.1122,-12.9276,2.06,3.5259,-0.179715,0,1698375261.9414,67
0.189,0.3798,-0.3878,0.5241,-0.2473,-0.521,-1.6258,-2.3365,14.1655,-0.1111,-1.7366,-3.2652,0.2414,-12.5031,5.4202,0.6094,-0.5084,-4.8213,0.2247,-13.0829,1.6141,3.4234,-0.125756,0,1698375261.9504,68
0.1851,0.1644,-0.3678,0.9591,-0.133,-0.1855,-1.9619,-2.1991,13.5177,0.2884,-1.5708,-3.4552,0.3378,-12.8643,5.0448,0.3039,-0.2747,-4.8179,0.2235,-12.9856,1.248,3.1679,-0.091104,0,1698375261.9608,69
0.1771,-0.1238,-0.3449,1.2926,0.6085,-0.0015,-2.2732,-2.255,12.8977,1.4532,-1.1471,-3.3624,0.4042,-13.0016,4.5854,-0.1796,-0.1332,-4.8085,0.0317,-12.7826,1.0967,2.7891,-0.065556,0,1698375261.9704,70
0.1635,-0.4681,-0.3244,1.4464,1.0908,0.1567,-2.7145,-1.6564,13.1477,2.7003,-0.5956,-3.1565,0.426,-12.8586,4.1435,-0.7224,-0.2278,-4.5131,-0.2707,-12.4284,1.0322,2.3129,-0.044979,0,1698375261.9808,71
0.1441,-0.9014,-0.3126,1.2695,1.9715,0.2583,-3.2055,-1.8139,13.4322,4.0912,0.2026,-2.8177,0.471,-12.3047,3.6694,-1.2555,-0.355,-3.5934,-0.5865,-11.8748,0.9874,1.859,-0.029006,0,1698375261.9906,72
0.1207,-1.3392,-0.3116,0.9387,2.7264,0.3952,-3.8442,-2.0504,13.2194,5.0671,1.2444,-2.3483,0.5886,-11.4398,3.2415,-1.6869,-0.3456,-2.4359,-0.8804,-11.2409,0.9135,1.4469,0.014918,0,1698375262.0005,73
0.095,-1.6856,-0.3143,0.6893,2.6931,0.4265,-4.5483,-1.2788,13.1313,5.0222,2.259,-1.9223,0.7192,-10.5147,2.9516,-1.9972,-0.0298,-1.403,-1.0542,-10.7512,0.6833,1.0704,0.157023,0,1698375262.011,74
0.0655,-2.0219,-0.3144,0.6132,2.4977,0.2957,-4.9358,-0.9799,12.5161,5.0558,2.9857,-1.5744,0.7976,-9.775,2.7807,-2.2125,0.5283,-0.6851,-1.0494,-10.4454,0.3882,0.8036,0.256546,0,1698375262.0202,75
0.0333,-2.2965,-0.3088,0.7364,1.7707,0.1541,-4.8703,-0.303,11.7891,4.3805,3.2953,-1.3749,0.8363,-9.2812,2.6277,-2.3282,1.1867,-0.3193,-0.8709,-10.2218,0.0643,0.6063,0.116192,0,1698375262.0307,76
-0.0016,-2.5777,-0.2971,0.9575,1.0152,-0.0761,-4.5655,0.2591,11.051,3.8288,3.3049,-1.4048,0.9431,-8.981,2.3896,-2.3138,1.9615,-0.1433,-0.6002,-10.0235,-0.2573,0.4386,-0.103525,0,1698375262.0404,77
-0.0389,-2.8018,-0.2819,1.1679,0.8408,-0.6281,-4.1328,-0.6065,10.4327,4.1109,3.222,-1.7383,1.1087,-8.9282,2.1507,-2.1353,2.6621,-0.0007,-0.3363,-9.87,-0.511,0.3415,-0.101807,0,1698375262.0503,78
-0.0757,-2.9985,-0.2656,1.2888,0.8144,-1.3245,-3.639,-1.7598,10.2078,4.5497,3.1781,-2.3408,1.2058,-9.1479,2.009,-1.8389,3.1927,0.1169,-0.1117,-9.8358,-0.6566,0.3299,0.096684,0,1698375262.0601,79
-0.1114,-3.2099,-0.2498,1.3424,0.5314,-1.7955,-3.2555,-1.7029,10.6516,4.4843,3.282,-2.8786,1.1304,-9.7132,2.0884,-1.4677,3.5553,0.1878,0.0116,-10.0153,-0.6191,0.3982,0.295696,0,1698375262.0705,80
-0.1453,-3.2343,-0.2348,1.3612,0.2562,-2.1716,-2.7539,-1.382,11.4025,3.9812,3.3619,-3.0159,0.9951,-10.3782,2.3917,-1.1488,3.7765,0.1244,-0.0306,-10.3584,-0.4158,0.5589,0.450672,0,1698375262.08,81
-0.1772,-3.2492,-0.2199,1.387,0.0544,-2.3938,-2.0456,-1.3752,11.4274,3.756,3.2432,-2.6233,0.9488,-10.7712,2.7063,-1.0337,4.0174,-0.2384,-0.2586,-10.6206,-0.1202,0.7105,0.571286,0,1698375262.0908,82
-0.2077,-3.277,-0.2044,1.4333,-0.1535,-2.4539,-1.2875,-1.0708,11.0373,3.5789,3.1843,-1.9501,0.918,-10.8712,2.9708,-1.0838,4.2539,-0.6737,-0.5959,-10.7443,0.1888,0.7702,0.665019,0,1698375262.1004,83
-0.2366,-3.2556,-0.1885,1.4915,-0.0848,-2.4682,-0.4763,-0.631,10.4657,3.4073,3.3482,-1.492,0.9128,-10.7038,3.2032,-1.2232,4.3361,-0.8404,-0.8979,-10.7576,0.4777,0.8139,0.738503,0,1698375262.1102,84
-0.2644,-3.1821,-0.1721,1.5598,0.0434,-2.3456,0.3456,-0.0494,9.6775,3.2816,3.6255,-1.3842,0.9028,-10.2808,3.3806,-1.3248,4.3327,-0.7782,-1.0839,-10.6129,0.7732,0.8415,0.796485,0,1698375262.1203,85
-0.2913,-3.0063,-0.1551,1.6432,0.0979,-2.1233,1.1288,0.4817,9.1895,3.0468,3.8579,-1.3968,0.7706,-9.7128,3.5065,-1.3107,4.2628,-0.5049,-1.1049,-10.3118,1.0607,0.8476,0.84185,0,1698375262.1304,86
-0.3173,-2.8798,-0.1375,1.7207,0.0346,-1.7555,1.9016,0.7206,8.7218,2.7998,3.9379,-1.2693,0.5001,-9.0829,3.591,-1.1614,4.1624,-0.0003,-0.9652,-9.8801,1.3038,0.8121,0.877146,0,1698375262.1402,87
-0.3425,-2.8134,-0.1195,1.7821,-0.1808,-1.2227,2.6263,0.9502,8.3539,2.5702,3.9045,-1.2018,0.1757,-8.451,3.6831,-0.89,4.0197,0.6933,-0.6956,-9.3577,1.4937,0.735,0.90457,0,1698375262.1506,88
-0.3669,-2.7356,-0.1013,1.8467,-0.3046,-0.7211,3.2634,1.2287,8.1556,2.4055,3.7116,-1.2994,0.0278,-7.7995,3.7581,-0.6248,3.798,1.451,-0.3294,-8.7764,1.62,0.6505,0.925869,0,1698375262.1599,88
-0.3902,-2.6313,-0.0832,1.8928,-0.3506,-0.2983,3.8417,1.2727,8.0566,2.341,3.3717,-1.2968,-0.0147,-7.182,3.7741,-0.3329,3.5151,2.1214,0.0684,-8.1909,1.7008,0.6002,0.94241,0,1698375262.1713,89
-0.4129,-2.5013,-0.065,1.8863,-0.4058,0.3105,4.3164,1.108,8.15,2.29,2.9876,-1.2385,-0.0826,-6.6767,3.7457,0.0039,3.0899,2.7196,0.4608,-7.5884,1.7593,0.5418,0.955262,0,1698375262.1817,90
-0.4345,-2.3646,-0.0476,1.8513,-0.395,0.8405,4.6494,0.99,8.1455,2.1938,2.5443,-1.0936,-0.1175,-6.2476,3.6634,0.2492,2.6174,3.1698,0.8696,-7.0226,1.7123,0.3431,0.96525,0,1698375262.1909,91
-0.4531,-2.2213,-0.0327,1.8374,-0.4762,1.1814,4.8228,1.0691,8.1436,1.991,2.1438,-0.7977,-0.1114,-5.8771,3.5378,0.4311,2.2367,3.2843,1.1599,-6.5291,1.6046,0.1553,0.973009,0,1698375262.2009,92
-0.4697,-2.0685,-0.0191,1.7533,-0.6474,1.511,4.8518,1.2132,7.9741,1.9022,1.8353,-0.5262,-0.0921,-5.5865,3.3828,0.6369,2.0246,3.1005,1.324,-6.1092,1.5779,0.1241,0.979035,0,1698375262.2102,93
-0.4855,-1.913,-0.0057,1.6413,-0.8256,1.8096,4.7934,1.4261,7.6385,1.8594,1.3451,0.2642,-0.0737,-5.3775,3.1915,0.8154,1.7269,3.0966,1.4284,-5.7691,1.5545,0.1568,0.983716,0,1698375262.2203,94
-0.5,-1.8101,0.0068,1.5525,-1.0117,2.1114,4.6688,1.7614,7.5983,1.7823,1.0231,0.9284,-0.1004,-5.2872,3.0112,0.8747,1.3004,3.1516,1.455,-5.5327,1.4711,0.2602,0.987352,0,1698375262.2304,95
-0.5127,-1.719,0.018,1.4687,-1.0906,2.5256,4.4058,2.2141,7.6192,1.7577,1.056,0.4983,-0.1696,-5.3514,2.8887,0.8425,0.994,2.8389,1.4425,-5.4502,1.4189,0.4828,0.990176,0,1698375262.2402,96
-0.5233,-1.5652,0.028,1.3749,-1.2712,3.0451,3.9766,2.3732,7.3828,1.6357,1.0124,-0.4356,-0.0343,-5.4988,2.7185,0.8086,0.7448,2.3293,1.3594,-5.5066,1.3586,0.7187,0.992369,0,1698375262.2509,97
-0.5318,-1.3967,0.0371,1.2533,-1.518,3.469,3.4412,2.2133,7.3722,1.3935,0.8679,-0.8372,0.0862,-5.6722,2.6109,0.8293,0.5641,1.8969,1.2531,-5.6774,1.2909,0.8383,0.994073,0,1698375262.2602,98
-0.5376,-1.195,0.0458,1.152,-1.639,3.7778,2.8422,2.0353,7.7306,1.1713,0.6959,-0.4265,0.0452,-5.8851,2.5992,0.8497,0.4893,1.7416,1.1365,-5.9156,1.211,0.9649,0.995396,0,1698375262.271,99
-0.5395,-0.9396,0.0546,1.0777,-1.6827,3.9793,2.2814,1.6921,7.8329,1.0493,0.5019,0.0476,0.0661,-6.1582,2.6096,0.8078,0.5071,1.6654,0.9777,-6.2266,1.1001,1.1429,0.996423,0,1698375262.2801,0
-0.5381,-0.6864,0.064,1.0366,-1.7831,4.2109,1.7555,1.3362,7.7811,0.7086,0.2991,0.2812,0.1514,-6.4855,2.6683,0.7963,0.5363,1.5524,0.7973,-6.5662,0.9974,1.3199,0.997221,0,1698375262.2909,1
-0.5344,-0.4243,0.074,1.0121,-2.1261,4.4444,1.2048,1.0723,8.0434,0.2828,0.14,0.2445,0.2552,-6.8154,2.7079,0.8193,0.558,1.423,0.6274,-6.8879,0.8393,1.439,0.997841,0,1698375262.3002,2
-0.5274,-0.1289,0.0848,1.0367,-2.505,4.5593,0.6261,0.7704,8.4562,0.0024,0.0266,0.1129,0.3128,-7.1141,2.7483,0.7833,0.6278,1.2031,0.4928,-7.2007,0.6437,1.4927,0.99832,0,1698375262.3103,3
-0.5158,0.2248,0.0963,1.0894,-2.4517,4.5727,0.0361,0.4559,8.5058,-0.289,-0.0121,-0.0157,0.3072,-7.4384,2.7955,0.7579,0.6965,0.9326,0.4189,-7.5395,0.5119,1.5718,0.998664,0,1698375262.3204,4
-0.4992,0.5802,0.1085,1.1466,-2.279,4.5576,-0.5552,0.3405,8.2586,-0.3472,0.0073,-0.2077,0.2518,-7.8182,2.8212,0.799,0.6535,0.6458,0.3965,-7.9171,0.4772,1.6758,0.998777,0,1698375262.3306,5
-0.4787,0.967,0.1208,1.1794,-2.1031,4.4921,-1.1491,0.2973,8.1539,-0.1705,-0.0151,-0.436,0.1755,-8.2445,2.8593,0.8489,0.4216,0.3745,0.3629,-8.2962,0.5285,1.7365,0.997853,0,1698375262.3403,6
-0.4554,1.3686,0.1337,1.188,-1.537,4.2734,-1.7092,0.1321,8.3386,0.0207,-0.0623,-0.6492,0.1349,-8.6299,2.9057,0.8812,0.0131,-0.0135,0.3232,-8.7056,0.6076,1.7842,0.989896,0,1698375262.3519,7
-0.4313,1.5999,0.1466,1.1919,-0.868,4.043,-2.0889,-0.2024,8.3442,0.2748,-0.0598,-0.8293,0.1486,-8.9936,2.9207,0.9108,-0.5889,-0.199,0.3017,-9.1035,0.6536,1.8757,0.922894,0,1698375262.3612,8
-0.4102,1.695,0.1581,1.1986,-0.1873,3.9058,-2.1861,-0.4726,8.3717,0.4676,-0.0187,-1.0109,0.1635,-9.3708,2.9836,0.9667,-1.1604,-0.0107,0.2637,-9.5085,0.7064,1.9944,0.71082,0,1698375262.3705,9
-0.3945,1.658,0.1691,1.2188,0.5893,3.6339,-2.1415,-0.5742,8.8298,0.8611,-0.0149,-1.2201,0.1657,-9.7418,3.1389,0.9984,-1.5472,0.4756,0.1924,-9.9746,0.7619,2.1711,0.385391,0,1698375262.3802,10
-0.3858,1.4074,0.1801,1.228,1.0886,3.271,-1.9721,-0.8891,9.5714,1.2704,-0.0962,-1.3383,0.2109,-10.1371,3.3143,1.0379,-1.7105,1.0782,-0.0368,-10.3866,0.7721,2.4526,0.076777,0,1698375262.3907,11
-0.3852,1.0359,0.1899,1.2155,1.3145,2.9321,-1.6676,-1.4625,10.4622,0.9542,-0.1739,-1.3594,0.2971,-10.539,3.4761,1.1395,-1.6029,1.2626,-0.1952,-10.8165,0.7044,2.7459,-0.163635,0,1698375262.4007,12
-0.3903,0.6617,0.1981,1.1278,1.4747,2.4975,-1.2982,-2.0027,11.0595,0.3175,-0.1746,-1.3639,0.3871,-10.9202,3.6086,1.2574,-1.3259,0.9243,-0.3029,-11.2608,0.5641,2.9001,-0.350357,0,1698375262.4107,13
-0.398,0.2944,0.2047,0.9907,1.5198,2.079,-0.8212,-2.2714,11.5338,-0.4246,-0.1087,-1.3971,0.4698,-11.2695,3.7197,1.3939,-0.9412,0.342,-0.4224,-11.6222,0.4551,2.9825,-0.495382,0,1698375262.4205,14
-0.4075,-0.0041,0.2104,0.8703,1.3938,1.7881,-0.2819,-2.1828,12.0629,-1.1677,-0.0268,-1.5466,0.505,-11.6329,3.8504,1.5426,-0.3705,-0.124,-0.3686,-11.9665,0.4157,3.0792,-0.606837,0,1698375262.4314,15
-0.4175,-0.1986,0.2153,0.7594,1.2303,1.545,0.2273,-1.7002,12.6332,-1.565,-0.0246,-1.891,0.4787,-12.0615,4.1136,1.6638,-0.021,-0.733,-0.3353,-12.3663,0.4676,3.1689,-0.519381,0,1698375262.441,16
-0.4232,-0.2161,0.2187,0.6312,1.0172,1.3477,0.7642,-1.4243,13.6766,-1.6553,-0.2504,-2.4167,0.4693,-12.4764,4.5645,1.7293,-0.1765,-1.5802,-0.4748,-12.8147,0.6977,3.1464,-0.236327,0,1698375262.4505,17
-0.4213,-0.0552,0.2198,0.4862,0.5637,1.4229,1.2017,-1.3303,14.412,-1.4501,-0.6959,-2.9998,0.5379,-12.6727,5.1026,1.6931,-0.3441,-2.6908,-0.7758,-13.2464,1.1277,3.021,0.003485,0,1698375262.4601,17
-0.4128,0.2227,0.2179,0.2769,-0.2973,1.6764,1.4487,-1.049,13.9882,-0.617,-1.2158,-3.3513,0.6372,-12.5334,5.586,1.512,-0.4769,-3.394,-0.874,-13.4403,1.6199,2.7503,0.152152,0,1698375262.4704,18
-0.4,0.5532,0.2108,-0.0552,-0.7582,1.8929,1.7283,-1.0083,13.532,0.3568,-1.7977,-3.3882,0.6768,-12.206,5.8934,1.2381,-0.7265,-3.3275,-0.6418,-13.3129,2.0736,2.2859,0.243114,0,1698375262.4801,19
-0.3864,0.7221,0.1966,-0.501,-0.402,1.9724,2.0545,-1.2418,13.1111,1.3855,-2.2906,-3.2243,0.6649,-11.7743,5.9985,0.9226,-1.0372,-3.05,-0.234,-12.9791,2.5139,1.6625,0.301121,0,1698375262.4907,20
-0.3769,0.6624,0.176,-0.8961,-0.1739,1.9873,2.3335,-1.0667,12.0896,2.7693,-2.4979,-2.7553,0.6413,-11.2729,5.958,0.6185,-1.2504,-2.468,0.2286,-12.4188,2.8668,0.9203,0.354854,0,1698375262.5008,21
-0.3749,0.4889,0.1514,-1.1749,0.114,2.0713,2.8416,-0.5778,11.8919,3.2375,-2.4765,-2.0995,0.6212,-10.7865,5.8081,0.3842,-1.4092,-1.7152,0.5887,-11.6755,3.048,0.2535,0.428272,0,1698375262.5104,22
-0.3764,0.3529,0.1242,-1.504,0.5558,2.0352,3.5652,-0.7086,12.0206,3.1165,-2.298,-1.3789,0.5842,-10.2521,5.5952,0.1715,-1.6033,-0.9898,0.842,-10.927,3.0452,-0.3109,0.502415,0,1698375262.5206,23
-0.3757,0.3536,0.0949,-1.9035,0.576,1.8409,4.1648,-1.2392,11.931,3.3895,-2.0733,-0.4918,0.4789,-9.6862,5.3951,-0.0649,-1.6424,-0.4648,1.106,-10.3393,2.9374,-0.7285,0.546288,0,1698375262.5305,24
-0.369,0.4985,0.063,-2.3058,0.2176,1.6457,4.3484,-1.326,10.8047,4.3315,-2.0513,0.4366,0.2871,-9.1836,5.3166,-0.311,-1.6369,-0.068,1.4424,-9.8571,2.8703,-0.9141,0.552116,0,1698375262.5405,25
-0.3565,0.6748,0.0281,-2.7167,-0.0881,1.622,4.1041,-0.5248,9.0825,5.0533,-2.3112,1.2745,0.0222,-8.7905,5.3482,-0.5802,-1.6447,0.201,1.7658,-9.4877,2.8903,-0.869,0.555001,0,1698375262.5505,26
-0.3419,0.7985,-0.0082,-2.9422,-0.2573,1.6623,3.7857,0.1149,8.988,5.2063,-2.8488,1.9509,-0.2721,-8.5034,5.4504,-0.8125,-1.81,0.3042,2.1091,-9.3117,2.9649,-0.6068,0.569086,0,1698375262.5613,27
-0.3275,0.8872,-0.0436,-3.0765,-0.4911,1.7533,3.5137,0.1267,9.7926,5.3562,-3.5834,2.3799,-0.5152,-8.3277,5.6314,-0.8596,-2.3381,0.3001,2.3288,-9.308,3.1755,-0.272,0.560516,0,1698375262.57,28
-0.3149,0.9401,-0.0777,-3.3077,-0.8064,2.0642,3.2811,-0.012,10.7251,5.2318,-4.223,2.5342,-0.6418,-8.3037,5.8065,-0.7604,-3.0176,0.382,2.2507,-9.4126,3.381,0.0141,0.539176,0,1698375262.5807,29
-0.3033,1.0042,-0.1117,-3.4467,-1.2073,2.414,3.0348,-0.3688,11.3784,5.0368,-4.6388,2.5535,-0.6183,-8.4327,5.8826,-0.646,-3.5377,0.0367,1.9693,-9.6115,3.5548,0.3554,0.524001,0,1698375262.5905,30
-0.2903,1.1275,-0.1462,-3.5087,-1.6183,2.5186,2.6713,-0.7181,11.9729,4.6216,-4.7914,2.6793,-0.41,-8.6627,5.8215,-0.586,-3.7201,-0.4907,1.5078,-9.9135,3.5585,0.6529,0.510741,0,1698375262.6003,31
-0.2755,1.2333,-0.1808,-3.5576,-1.8891,2.3707,2.1956,-1.2217,12.1281,4.237,-4.6781,3.0497,-0.0753,-8.9486,5.6499,-0.6117,-3.4843,-0.521,1.019,-10.2178,3.2624,0.7047,0.496152,0,1698375262.6102,32
-0.2595,1.3016,-0.215,-3.5551,-2.1454,2.2098,1.6412,-1.6633,11.6741,3.8822,-4.4418,3.2811,0.2231,-9.2775,5.3657,-0.682,-3.1563,-0.3887,0.6249,-10.369,2.8907,0.6484,0.478342,0,1698375262.6207,33
-0.2434,1.3385,-0.248,-3.5064,-2.1885,1.9535,1.0256,-1.9064,11.1404,3.4895,-4.1756,3.2317,0.4089,-9.5354,4.9728,-0.7243,-3.0182,-0.1495,0.3059,-10.2936,2.528,0.5584,0.457823,0,1698375262.6311,34
-0.2271,1.3915,-0.2794,-3.4336,-2.0353,1.5679,0.3404,-1.9779,10.2761,3.2137,-3.8709,3.0629,0.4679,-9.6414,4.523,-0.7567,-2.9468,0.1931,0.0804,-10.0585,2.1674,0.3888,0.436261,0,1698375262.64,35
-0.2101,1.4724,-0.3082,-3.3279,-1.9317,1.2001,-0.4449,-1.6694,9.4506,2.9227,-3.4961,2.861,0.3468,-9.6165,4.0916,-0.7965,-2.8112,0.6935,0.0304,-9.7133,1.7061,0.2739,0.409633,0,1698375262.6511,36
-0.1915,1.5766,-0.3343,-3.1838,-1.7967,0.8319,-1.245,-1.3913,9.0624,2.6034,-3.0653,2.7954,0.0925,-9.4355,3.6895,-0.8303,-2.4647,1.2458,0.1246,-9.2188,1.2654,0.1938,0.328575,0,1698375262.6603,37
-0.1719,1.7479,-0.3582,-3.0219,-1.4925,0.4222,-2.0061,-1.3781,8.4087,2.3736,-2.7357,2.8348,-0.1315,-9.0378,3.3317,-0.8764,-2.0047,1.7217,0.1065,-8.7302,0.9895,0.2305,0.185183,0,1698375262.6708,38
-0.1516,1.85,-0.3803,-2.854,-1.0755,0.001,-2.7251,-1.4184,7.6203,2.3482,-2.3843,3.0554,-0.3728,-8.5388,3.0591,-0.8472,-1.8118,2.1543,0.1155,-8.3213,0.7259,0.4401,0.020534,0,1698375262.6801,39
-0.1303,1.8905,-0.4009,-2.6922,-0.6612,-0.4183,-3.3603,-1.5141,7.1718,2.3654,-1.9409,3.4117,-0.6343,-8.0107,2.8733,-0.7382,-1.6544,2.5279,0.1063,-7.8527,0.5571,0.6455,-0.17021,0,1698375262.6907,40
-0.1091,1.9912,-0.4198,-2.545,-0.2219,-0.8402,-3.8563,-1.7229,6.9669,2.1698,-1.6306,3.7081,-0.7241,-7.4495,2.7196,-0.6151,-1.2338,2.6655,-0.0704,-7.3824,0.5227,0.8523,-0.355325,0,1698375262.7005,41
-0.0882,2.0688,-0.437,-2.4033,0.1228,-1.2012,-4.2091,-1.8926,6.8751,1.8489,-1.301,4.0635,-0.8169,-6.9427,2.6067,-0.4208,-0.7631,2.7784,-0.1804,-6.9809,0.4748,0.9974,-0.499261,0,1698375262.7106,42
-0.0679,2.0544,-0.453,-2.2706,0.3811,-1.5481,-4.4269,-1.9674,6.7135,1.6662,-0.8711,4.4649,-1.0168,-6.455,2.4457,-0.2438,-0.2297,2.7519,-0.3741,-6.593,0.482,1.1054,-0.611061,0,1698375262.7216,43
-0.0484,2.0079,-0.4684,-2.0973,0.6235,-1.9487,-4.5236,-2.0063,6.4172,1.7009,-0.5414,4.6786,-1.1899,-6.0212,2.2654,-0.1436,0.2767,2.554,-0.6754,-6.1775,0.5004,1.2066,-0.6979,0,1698375262.7317,44
-0.0308,1.9639,-0.4826,-1.879,0.8468,-2.3562,-4.5144,-2.0239,6.1533,1.8054,-0.3732,4.6052,-1.2724,-5.6959,2.1325,-0.0375,0.7169,2.2555,-0.958,-5.8149,0.4926,1.2453,-0.76535,0,1698375262.7415,45
-0.0161,1.8507,-0.4949,-1.6821,0.9204,-2.7519,-4.3734,-2.0652,6.0096,1.8286,-0.2919,4.2601,-1.2777,-5.4551,1.9892,0.0548,1.0597,1.8421,-1.2371,-5.5269,0.4894,1.2386,-0.81774,0,1698375262.7517,46
-0.0038,1.683,-0.5057,-1.5216,0.8081,-3.1582,-4.1165,-2.1229,6.1634,1.7445,-0.2228,3.6912,-1.3278,-5.3241,1.8442,0.1035,1.2092,1.4937,-1.4326,-5.3308,0.4818,1.2274,-0.858433,0,1698375262.7623,47
0.0065,1.5099,-0.5155,-1.3686,0.622,-3.5504,-3.7713,-2.2577,6.3416,1.6364,-0.2109,3.1173,-1.3804,-5.3114,1.7356,0.1509,1.1353,1.1813,-1.4379,-5.2896,0.3859,1.3204,-0.890041,0,1698375262.7722,48
0.0143,1.3207,-0.5235,-1.2011,0.3709,-3.9105,-3.3684,-2.3123,6.4453,1.4683,-0.2502,2.6937,-1.3352,-5.4026,1.7296,0.1982,0.7174,1.277,-1.5238,-5.3332,0.4143,1.5,-0.914592,0,1698375262.7826,49
0.0198,1.1268,-0.529,-1.0298,0.1315,-4.226,-2.9166,-2.2554,6.5469,1.2032,-0.245,2.3808,-1.2659,-5.5669,1.8104,0.2427,0.23,1.5031,-1.6826,-5.4925,0.5737,1.4925,-0.933661,0,1698375262.7923,50
0.0239,0.9602,-0.5324,-0.8382,0.1297,-4.6244,-2.3808,-2.3971,6.8004,0.8325,-0.2111,2.2137,-1.2028,-5.7924,1.9505,0.2732,-0.0062,1.1221,-1.6951,-5.8297,0.6904,1.3811,-0.948472,0,1698375262.8025,50
0.0281,0.8768,-0.533,-0.636,0.1428,-5.0395,-1.8146,-2.5603,6.9626,0.6011,-0.2222,2.1239,-1.1273,-6.0515,2.1683,0.3012,-0.1028,0.4411,-1.7594,-6.213,0.8662,1.4263,-0.959977,0,1698375262.8124,51
0.0347,0.8926,-0.5314,-0.4206,-0.2485,-5.0262,-1.2879,-2.2695,7.1422,0.1801,-0.3553,2.0908,-1.0772,-6.3371,2.4698,0.3513,-0.0644,-0.3631,-1.8673,-6.6013,0.9932,1.5187,-0.968913,0,1698375262.8222,52
0.0438,0.9401,-0.5266,-0.171,-0.9597,-4.6827,-0.7391,-1.9275,7.7247,-0.4444,-0.63,2.0838,-1.0894,-6.6387,2.7764,0.437,0.0156,-1.1796,-1.8556,-7.043,1.0952,1.576,-0.975854,0,1698375262.8316,53
0.0545,0.9598,-0.5165,0.2002,-1.4192,-4.3178,-0.1517,-1.9336,7.8507,-0.7009,-1.0044,2.0409,-1.1756,-6.9704,3.0739,0.576,0.123,-1.6646,-1.7264,-7.4965,1.2547,1.6731,-0.981245,0,1698375262.8419,54
0.0664,0.9979,-0.4997,0.6933,-1.5384,-4.0412,0.4009,-1.6181,7.746,-0.878,-1.417,1.8397,-1.3073,-7.3677,3.368,0.6855,0.1859,-1.9365,-1.5502,-7.9476,1.3946,1.8435,-0.985432,0,1698375262.8519,55
0.0793,1.0385,-0.4776,1.1618,-1.3941,-3.8835,0.9314,-1.0684,7.6166,-0.7873,-1.7154,1.3766,-1.4173,-7.7705,3.6427,0.7241,0.1206,-2.1417,-1.3622,-8.3888,1.5431,2.0447,-0.988685,0,1698375262.8615,56
0.0923,1.0828,-0.4518,1.4891,-0.9931,-3.7661,1.3819,-0.6733,7.4466,-0.4336,-1.7648,0.861,-1.4414,-8.1123,3.9226,0.7046,0.0324,-2.1162,-1.2196,-8.7599,1.7453,2.254,-0.990713,0,1698375262.8714,57
0.1059,1.1619,-0.4243,1.7507,-0.5597,-3.6068,1.7403,-0.5171,7.5118,-0.2545,-1.5279,0.4852,-1.374,-8.4166,4.1652,0.6753,-0.1214,-1.8714,-1.0841,-9.0826,1.9494,2.4585,-0.985027,0,1698375262.8812,58
0.1194,1.2061,-0.3987,1.943,0.0998,-3.6304,1.9693,-0.5275,7.6578,0.0474,-1.0883,0.2402,-1.2433,-8.7614,4.3554,0.671,-0.3891,-1.5952,-0.9482,-9.4107,2.086,2.6291,-0.981087,0,1698375262.8907,59
0.132,1.1901,-0.3764,1.964,0.6846,-3.6718,2.0372,-0.4201,8.2377,0.446,-0.5678,0.0644,-1.0753,-9.1246,4.5072,0.7147,-0.6984,-1.3491,-0.852,-9.707,2.1379,2.7108,-0.985287,0,1698375262.901,60
0.1439,1.1399,-0.3597,1.7748,1.3347,-3.6622,2.0294,-0.658,9.1226,0.9192,-0.0247,-0.1702,-0.886,-9.4757,4.6107,0.7925,-0.8995,-1.1921,-0.7781,-9.9498,2.1913,2.6185,-0.988572,0,1698375262.9127,61
0.1552,1.0842,-0.3559,1.3376,1.7204,-3.4596,1.8402,-0.6709,10.0281,1.0675,0.5438,-0.481,-0.6563,-9.7864,4.6716,0.8232,-1.0966,-0.9806,-0.7429,-10.1447,2.2589,2.4668,-0.991123,0,1698375262.9238,62
0.1641,1.0311,-0.3637,0.7896,1.5496,-3.0056,1.3736,-0.1694,11.3918,0.6231,1.0936,-0.8197,-0.3722,-9.9868,4.7349,0.7851,-1.1823,-1.0874,-0.7053,-10.4308,2.2318,2.3926,-0.993105,0,1698375262.9356,63
0.1709,0.9282,-0.3788,0.2909,1.2132,-2.2181,-0.1606,0.6692,13.5052,-0.7648,1.3642,-1.5526,0.0709,-10.2884,5.1387,0.707,-0.8758,-2.3572,-0.5086,-11.0443,2.1289,2.7594,-0.861809,0,1698375262.946,64
0.1763,0.7814,-0.3955,-0.0649,1.0551,-1.8794,-0.9099,0.3188,13.7989,-1.3029,1.0098,-1.8923,0.1423,-10.5299,5.2952,0.7627,-0.6717,-2.9491,-0.3639,-11.492,2.0461,3.1523,-0.626255,0,1698375262.956,65
0.1792,0.652,-0.4078,-0.2209,1.0551,-1.8794,-0.9099,0.3188,13.7989,-1.3029,1.0098,-1.8923,0.1423,-10.5299,5.2952,0.7627,-0.6717,-2.9491,-0.3639,-11.492,2.0461,3.1523,-0.448202,0,1698375262.9657,66
0.1812,0.5353,-0.4109,-0.1356,1.3196,-1.5536,-2.4618,-0.2691,14.4026,-1.1847,-0.1407,-2.4336,0.2212,-11.5806,5.3111,0.7819,-0.2982,-3.6494,-0.1331,-12.5207,1.5485,3.4448,-0.321275,0,1698375262.9782,67
0.1819,0.3872,-0.4016,0.2122,1.1889,-1.2389,-2.8797,-0.4581,13.4068,0.2384,-0.5791,-2.5979,0.2702,-12.1926,5.1306,0.6391,-0.0978,-3.8097,-0.0519,-12.8411,1.169,3.2787,-0.23364,0,1698375262.9883,68
0.1799,0.1894,-0.3829,0.6339,0.9331,-0.5965,-3.2605,-0.3072,13.0323,0.6149,-0.6879,-2.8439,0.292,-12.6812,4.8669,0.3296,0.1346,-3.7074,-0.0876,-12.9226,0.9055,3.0026,-0.172485,0,1698375262.9997,69
0.1729,-0.0465,-0.3601,0.996,1.2832,0.09,-3.6245,0.1011,12.5338,1.3454,-0.527,-2.8288,0.2911,-13.0053,4.6065,-0.0984,0.2256,-3.4815,-0.216,-12.9271,0.8149,2.6727,-0.127207,0,1698375263.0103,70
0.1596,-0.3562,-0.3393,1.1505,1.7179,0.532,-3.937,0.1213,12.2289,2.7334,-0.2486,-2.8435,0.3534,-13.0526,4.3355,-0.6061,0.125,-3.2011,-0.4324,-12.8053,0.7705,2.2853,-0.092731,0,1698375263.0206,71
0.141,-0.774,-0.3284,0.9661,2.5268,0.9725,-4.2573,-0.4417,11.9226,4.2672,0.1432,-2.8677,0.4811,-12.7712,3.993,-1.0805,-0.0307,-2.6732,-0.6286,-12.5725,0.7269,1.8747,-0.065791,0,1698375263.0303,72
0.1196,-1.1481,-0.3287,0.6517,2.983,1.4569,-4.7456,-0.4323,11.9915,4.8063,0.6051,-2.5235,0.5854,-12.2058,3.6313,-1.4115,-0.1277,-1.9385,-0.7128,-12.2345,0.7487,1.5406,-0.018796,0,1698375263.0399,73
0.0962,-1.3973,-0.3324,0.4085,2.6683,1.6543,-5.1538,-0.0683,12.1209,4.6251,1.3551,-1.9416,0.657,-11.4817,3.3581,-1.6576,-0.129,-1.0491,-0.7331,-11.8186,0.7009,1.2939,0.125865,0,1698375263.0493,74
0.0698,-1.7532,-0.333,0.3727,2.6549,1.3312,-5.2791,-0.4272,11.8612,4.6773,2.3185,-1.4471,0.7237,-10.7733,3.1518,-1.8758,-0.0226,-0.2091,-0.7011,-11.488,0.5296,1.0855,0.316738,0,1698375263.0592,75
0.0393,-2.2578,-0.328,0.4909,2.5123,0.8186,-5.022,-0.8966,10.3915,4.4976,3.0558,-1.0911,0.779,-10.1384,2.9536,-2.0394,0.2279,0.4621,-0.5254,-11.2,0.2803,0.8303,0.257714,0,1698375263.0685,76
0.0061,-2.7261,-0.3171,0.6944,2.0642,0.1588,-4.4311,-1.2865,9.0861,4.2575,3.4819,-0.9023,0.8585,-9.6297,2.7403,-2.1066,0.6876,1.055,-0.2296,-10.8277,0.0155,0.5337,0.014752,0,1698375263.079,77
-0.0298,-3.0562,-0.3014,0.978,1.7595,-0.5326,-3.6866,-2.1475,9.3614,4.0275,3.5129,-1.0148,1.0481,-9.3664,2.4963,-2.0526,1.3334,1.5215,0.139,-10.4749,-0.2174,0.2946,-0.017214,0,1698375263.0884,78
-0.0651,-3.231,-0.2839,1.1805,1.3985,-1.0602,-2.9269,-3.1608,9.5374,3.9082,3.4722,-1.1899,1.1451,-9.4251,2.318,-1.8509,2.0635,1.7168,0.5106,-10.2949,-0.4036,0.2181,0.156464,0,1698375263.0988,79
-0.0998,-3.3356,-0.2661,1.2563,0.9936,-1.6559,-2.3564,-3.1997,10.1589,3.6947,3.5735,-1.1947,1.0662,-9.75,2.291,-1.5416,2.7499,1.5762,0.7694,-10.269,-0.4601,0.3188,0.341738,0,1698375263.111,80
-0.1366,-3.4297,-0.249,1.2866,0.8308,-2.2284,-1.8076,-2.8341,10.7977,3.4238,3.5925,-1.1141,0.9989,-10.1037,2.3972,-1.2966,3.2532,1.1721,0.8392,-10.3066,-0.381,0.5109,0.488216,0,1698375263.1202,81
-0.1705,-3.4129,-0.2335,1.3582,0.5834,-2.5871,-1.2006,-2.3229,10.8585,3.3313,3.5204,-0.6833,0.9228,-10.2723,2.5704,-1.1766,3.5802,0.6802,0.7033,-10.3379,-0.1883,0.7237,0.602095,0,1698375263.13,82
-0.2015,-3.2788,-0.2188,1.4,0.0776,-2.6816,-0.5699,-1.4432,10.9768,3.1629,3.5607,0.0314,0.8399,-10.2485,2.7856,-1.1582,3.783,0.3143,0.4393,-10.3364,0.1073,0.8569,0.690354,0,1698375263.1401,83
-0.2323,-3.2128,-0.2036,1.4032,-0.121,-2.6715,0.134,-0.6105,10.8298,3.0297,3.6729,0.4646,0.8675,-10.0095,3.0318,-1.2379,3.823,0.2584,0.1806,-10.2841,0.424,0.88,0.758961,0,1698375263.1501,83
-0.2631,-3.2531,-0.1867,1.4771,-0.121,-2.5606,0.8136,0.0024,10.146,2.9544,3.7158,0.6401,0.9042,-9.582,3.2514,-1.289,3.7492,0.5227,0.0196,-10.1267,0.7341,0.8497,0.81256,0,1698375263.1611,84
-0.2928,-3.1888,-0.1701,1.5699,-0.1891,-2.3304,1.4659,0.4845,9.3813,2.871,3.7261,0.7193,0.7973,-9.1187,3.4466,-1.2578,3.6195,1.0773,-0.004,-9.855,1.0194,0.7832,0.854393,0,1698375263.17,85
-0.3211,-3.0437,-0.154,1.6395,-0.185,-2.0791,2.0825,0.8043,8.5519,3.0184,3.7366,0.6691,0.6802,-8.6206,3.5321,-1.1694,3.4472,1.8865,0.1209,-9.4727,1.2185,0.6634,0.886902,0,1698375263.1806,86
-0.3481,-2.965,-0.1369,1.7156,-0.2772,-1.705,2.6825,1.0748,8.0883,3.0399,3.6229,0.6131,0.6565,-8.0758,3.5342,-0.9572,3.3457,2.6906,0.3712,-9.0285,1.3173,0.5332,0.912151,0,1698375263.1906,87
-0.3733,-2.9061,-0.1197,1.7862,-0.3574,-1.2244,3.2627,1.2895,7.918,2.8291,3.4349,0.5168,0.6722,-7.5565,3.4901,-0.6938,3.2694,3.3612,0.6492,-8.4942,1.3318,0.4168,0.931762,0,1698375263.2006,88
-0.3968,-2.7875,-0.1026,1.8369,-0.1955,-0.9977,3.7764,0.9195,8.2487,3.0137,3.2932,0.4488,0.6597,-7.1116,3.369,-0.4731,3.0636,3.9144,0.9103,-7.8616,1.2968,0.2917,0.946995,0,1698375263.2102,89
-0.4187,-2.6464,-0.0857,1.8192,-0.1183,-0.7491,4.212,0.4237,8.5068,3.1058,3.2018,0.4753,0.5963,-6.7311,3.1845,-0.2822,2.7631,4.2444,1.1207,-7.2594,1.2319,0.1809,0.958829,0,1698375263.2202,90
-0.4388,-2.5438,-0.0692,1.7403,-0.2842,-0.2109,4.5265,0.4074,8.2655,2.6932,3.1164,0.5563,0.5155,-6.3767,2.9763,-0.1187,2.5007,4.0081,1.1598,-6.713,1.1457,0.2848,0.968022,0,1698375263.2301,91
-0.457,-2.4108,-0.0532,1.7303,-0.293,0.2608,4.7231,0.5532,8.022,2.4016,3.0389,0.7292,0.4101,-6.1135,2.7623,0.0267,2.2859,3.765,1.1415,-6.2804,1.0601,0.411,0.975161,0,1698375263.2401,92
-0.4733,-2.2227,-0.0378,1.7643,-0.2614,0.6357,4.7633,0.7603,7.7101,2.3184,2.9796,0.872,0.2959,-5.9162,2.5158,0.1261,2.044,3.721,1.1487,-6.0178,0.9438,0.4272,0.980707,0,1698375263.2505,93
-0.4878,-2.0031,-0.0231,1.7339,-0.3152,0.9772,4.6693,1.0334,7.6048,2.2231,2.856,0.9957,0.1944,-5.7486,2.3326,0.2107,1.8536,3.3639,1.092,-5.8398,0.8348,0.497,0.985015,0,1698375263.2609,94
-0.5006,-1.7867,-0.009,1.6507,-0.4287,1.3634,4.4607,1.3504,7.7252,1.9341,2.472,1.6883,0.1343,-5.5968,2.1751,0.3125,1.8079,2.8061,1.0224,-5.7718,0.7499,0.5651,0.98836,0,1698375263.27,95
-0.5115,-1.6101,0.0048,1.6052,-0.5764,1.8219,4.1121,1.6628,7.9594,1.5937,2.1046,1.9408,-0.0069,-5.5806,2.1303,0.3168,1.804,2.1513,0.9462,-5.8366,0.6935,0.6391,0.990959,0,1698375263.2807,96
-0.5205,-1.4565,0.0181,1.5802,-0.6937,2.2411,3.6658,1.8809,7.9895,1.4067,2.0145,1.0069,-0.0178,-5.7026,2.1428,0.2378,1.7421,1.6146,0.8649,-5.9527,0.6947,0.6683,0.992978,0,1698375263.2901,97
-0.5272,-1.2741,0.0308,1.5458,-0.8743,2.6017,3.1436,2.023,8.0355,1.369,1.8763,0.3454,0.0641,-5.8096,2.207,0.2483,1.7018,1.2471,0.8043,-6.1565,0.756,0.6337,0.994546,0,1698375263.3004,98
-0.5312,-1.0554,0.0424,1.4832,-0.9703,2.8298,2.5386,1.899,8.2007,1.41,1.6581,0.3234,0.0373,-5.9549,2.316,0.2995,1.742,0.9591,0.7734,-6.4347,0.8105,0.5957,0.995763,0,1698375263.3105,99
-0.5328,-0.8303,0.0533,1.3938,-1.1428,3.0597,1.9263,1.5785,8.1635,1.3015,1.3992,0.3668,0.1154,-6.1293,2.3979,0.3125,1.8056,0.7099,0.7724,-6.691,0.8299,0.5805,0.996709,0,1698375263.3202,100
