right_q,right_q_dot,left_q,left_q_dot,pelv_ang_1,pelv_ang_2,pelv_ang_3,pelv_acc_1,pelv_acc_1,pelv_acc_3,right_chest_ang_x,right_chest_ang_y,right_chest_ang_z,right_chest_acc_x,right_chest_acc_y,right_chest_acc_z,left_chest_ang_x,left_chest_ang_y,left_chest_ang_z,left_chest_acc_x,left_chest_acc_y,left_chest_acc_z,,,,Label
-0.3897,-0.3117,-0.0221,0.2432,-1.1628,-0.184,0.3578,-0.3179,10.1108,1.2793,0.1658,1.1172,0.1145,-9.0278,1.9805,2.6577,-0.3261,1.4923,0.3534,-8.4374,-3.5167,2.8922,-0.014071,0,1698649701,0
-0.3896,-0.2501,-0.0206,0.2275,-1.0529,-0.2185,0.2342,-0.2223,10.3848,1.185,0.2912,1.0148,0.1737,-9.0843,2.0048,2.7026,-0.1561,1.3882,0.3422,-8.4924,-3.5412,2.9296,0.042317,0,1698649701,1
-0.3896,-0.2041,-0.0193,0.2296,-1.0587,-0.2138,0.0606,-0.0318,10.4258,1.1669,0.3784,0.9447,0.2392,-9.1026,2.0514,2.7553,0.0305,1.2536,0.3387,-8.5167,-3.5709,2.9231,0.084474,0,1698649701,1
-0.3895,-0.1532,-0.0176,0.2218,-1.1229,-0.1991,-0.1425,0.2527,10.3556,1.1771,0.3941,0.8766,0.2893,-9.0807,2.0946,2.8262,0.2317,1.1807,0.3469,-8.5072,-3.5756,2.8866,0.114938,0,1698649701,2
-0.3895,-0.1057,-0.0156,0.216,-1.1864,-0.203,-0.347,0.4801,10.1789,1.2208,0.3254,0.7914,0.3188,-9.0428,2.1196,2.8875,0.3555,1.1887,0.3696,-8.479,-3.5615,2.8528,0.13651,0,1698649701,3
-0.3892,-0.0674,-0.013,0.2368,-1.3516,-0.1702,-0.5161,0.5932,10.1533,1.1912,0.203,0.6757,0.3281,-8.9904,2.1254,2.9313,0.3938,1.1226,0.4076,-8.4063,-3.5188,2.8506,0.15165,0,1698649701,4
-0.3885,-0.024,-0.0097,0.2611,-1.4842,-0.0979,-0.633,0.6192,10.2698,1.1235,0.0559,0.5339,0.3225,-8.9187,2.1125,2.9562,0.3869,1.072,0.4576,-8.3151,-3.4579,2.8626,0.162176,0,1698649701,4
-0.3869,0.0371,-0.0061,0.2833,-1.5224,-0.0059,-0.7084,0.5946,10.1189,1.1757,-0.1001,0.3973,0.3097,-8.8304,2.075,2.9692,0.3526,1.0933,0.5143,-8.2461,-3.3982,2.824,0.169877,0,1698649701,5
-0.3844,0.0842,-0.0025,0.3178,-1.5188,0.0885,-0.7577,0.5596,9.9183,1.2601,-0.2315,0.2844,0.2954,-8.7485,2.0314,2.9795,0.2926,1.0663,0.5678,-8.1882,-3.3519,2.7561,0.175959,0,1698649701,6
-0.3813,0.1354,0.0006,0.3412,-1.4001,0.1389,-0.7993,0.5357,9.774,1.32,-0.3071,0.1857,0.2886,-8.683,2.0013,2.9728,0.2001,1.0002,0.6127,-8.1382,-3.3197,2.7124,0.180739,0,1698649701,7
-0.3778,0.2257,0.0038,0.3297,-1.2986,0.2385,-0.8137,0.41,9.6264,1.3613,-0.3352,0.0902,0.2885,-8.6243,1.987,2.9471,0.1154,0.9532,0.6467,-8.0956,-3.2738,2.6743,0.184554,0,1698649701,7
-0.3739,0.2817,0.0072,0.3543,-1.2487,0.4215,-0.8096,0.37,9.438,1.4291,-0.3459,0.0092,0.2926,-8.5713,1.9933,2.9263,0.0871,0.9012,0.6629,-8.0575,-3.2178,2.639,0.187525,0,1698649701,8
-0.3701,0.2951,0.0112,0.4116,-1.1639,0.5356,-0.8141,0.4127,9.2873,1.5243,-0.3593,-0.0486,0.3077,-8.5312,2.0051,2.9069,0.1052,0.8345,0.6619,-8.0383,-3.1452,2.6239,0.18912,0,1698649701,9
-0.3675,0.2726,0.0159,0.443,-1.0887,0.642,-0.798,0.4171,9.1749,1.5466,-0.3698,-0.0951,0.3323,-8.5096,2.0188,2.8854,0.1355,0.7682,0.6534,-8.0543,-3.0872,2.614,0.189229,0,1698649701,9
-0.3663,0.2002,0.0201,0.4475,-1.0201,0.7597,-0.7616,0.3956,9.1605,1.5215,-0.377,-0.1509,0.365,-8.5047,2.0431,2.8677,0.159,0.7209,0.6536,-8.0826,-3.0783,2.6024,0.189944,0,1698649701,10
-0.366,0.1328,0.0234,0.4346,-0.9795,0.8408,-0.735,0.295,9.2728,1.4985,-0.3989,-0.2147,0.4006,-8.5085,2.0791,2.8491,0.1644,0.6919,0.6649,-8.1219,-3.09,2.5882,0.19238,0,1698649701,11
-0.3658,0.0961,0.0266,0.4272,-0.9881,0.9269,-0.7186,0.2906,9.2697,1.4349,-0.4252,-0.2762,0.4393,-8.5375,2.1081,2.8488,0.1542,0.6608,0.6762,-8.1821,-3.1074,2.5837,0.196454,0,1698649701,12
-0.3655,0.0881,0.0308,0.4278,-0.9053,0.9758,-0.6744,0.3609,9.1272,1.355,-0.4363,-0.3375,0.4899,-8.6177,2.1271,2.8671,0.1454,0.6035,0.6773,-8.2655,-3.1201,2.6063,0.210368,0,1698649701,12
-0.3652,0.081,0.0357,0.4097,-0.7191,1.0181,-0.5974,0.3835,8.9716,1.2938,-0.4312,-0.4048,0.5496,-8.7321,2.1572,2.9002,0.1505,0.4899,0.6688,-8.3829,-3.1207,2.6314,0.263784,0,1698649701,13
-0.3649,0.064,0.0406,0.4111,-0.5821,1.1276,-0.5078,0.4032,9.0034,1.2185,-0.4299,-0.521,0.5968,-8.848,2.208,2.9329,0.1774,0.3369,0.6681,-8.5134,-3.1205,2.6303,0.361147,0,1698649701,14
-0.3644,0.0669,0.0448,0.4073,-0.4519,1.2553,-0.4135,0.4588,9.2318,1.1431,-0.4953,-0.7169,0.6131,-8.9583,2.2772,2.9668,0.2342,0.184,0.6761,-8.6354,-3.1378,2.6203,0.469429,0,1698649701,14
-0.3633,0.0927,0.0491,0.3834,-0.32,1.3647,-0.3138,0.5296,9.4637,1.1335,-0.6833,-0.9935,0.6069,-9.1041,2.3798,3.0009,0.2961,0.0388,0.6755,-8.802,-3.159,2.6174,0.569113,0,1698649701,15
-0.3609,0.1524,0.0536,0.3819,-0.1682,1.4574,-0.1878,0.5845,9.589,1.2786,-0.9793,-1.3429,0.6056,-9.3331,2.5363,3.0451,0.3417,-0.057,0.6308,-9.0639,-3.2171,2.6371,0.656263,0,1698649701,16
-0.3563,0.2742,0.0573,0.3573,0.0196,1.485,-0.0601,0.5241,9.8082,1.5475,-1.2825,-1.7184,0.6335,-9.6273,2.7192,3.1454,0.3106,-0.1612,0.556,-9.4115,-3.2885,2.7194,0.730203,0,1698649701,17
-0.3488,0.4144,0.0593,0.303,0.1927,1.4715,0.0859,0.2432,10.1886,1.8054,-1.5121,-2.0526,0.691,-9.9247,2.8782,3.3051,0.18,-0.4219,0.5021,-9.7921,-3.3124,2.8384,0.789872,0,1698649701,17
-0.3389,0.5306,0.0601,0.2448,0.2914,1.4457,0.3136,-0.1417,10.6091,1.9828,-1.6537,-2.2942,0.7654,-10.238,2.9816,3.481,0.0248,-0.7147,0.4739,-10.1594,-3.3496,2.9333,0.836489,0,1698649701,18
-0.3275,0.6633,0.0604,0.1933,0.4218,1.3243,0.602,-0.5874,10.9908,2.2363,-1.6811,-2.4343,0.8454,-10.6081,3.012,3.616,-0.0949,-0.7735,0.4656,-10.5566,-3.4555,3.0452,0.872735,0,1698649701,19
-0.3158,0.8006,0.0603,0.1553,0.529,1.1396,0.9428,-1.0125,11.3129,2.4787,-1.549,-2.4816,0.9153,-11.016,2.9623,3.6802,-0.1035,-0.6862,0.4166,-10.9213,-3.6118,3.0907,0.900826,0,1698649701,20
-0.3051,0.8807,0.0601,0.1234,0.5765,0.9391,1.2927,-1.3017,11.7467,2.5488,-1.2435,-2.4264,0.961,-11.4169,2.8911,3.698,0.0083,-0.7734,0.3282,-11.1559,-3.8278,3.0442,0.922487,0,1698649701,20
-0.296,0.8817,0.0598,0.0885,0.6398,0.6623,1.5534,-1.517,12.173,2.6682,-0.8691,-2.2156,0.9624,-11.7228,2.8757,3.6894,0.24,-0.8557,0.2826,-11.2368,-3.9574,3.0506,0.939311,0,1698649701,21
-0.2882,0.8038,0.0585,0.0214,0.5134,0.4482,1.6827,-1.6089,12.4701,2.7516,-0.5382,-1.7699,0.9081,-11.8442,2.885,3.6071,0.4984,-0.9188,0.3034,-11.1949,-3.9712,3.0551,0.952354,0,1698649701,22
-0.2824,0.7175,0.0551,-0.1113,0.3164,0.2086,1.5998,-1.4052,12.792,2.7832,-0.2769,-1.1211,0.8327,-11.7718,2.8568,3.4678,0.6036,-1.0368,0.3801,-11.0755,-3.9522,2.989,0.961248,0,1698649701,22
-0.2769,0.6675,0.0481,-0.3057,0.1301,-0.0712,1.3216,-1.0444,12.8542,2.9045,-0.0586,-0.4058,0.7374,-11.5326,2.8177,3.3374,0.5473,-1.0091,0.5138,-10.8657,-3.8421,2.8236,0.958644,0,1698649701,23
-0.2708,0.6499,0.0379,-0.5394,-0.0913,-0.2221,0.9077,-0.7431,12.6691,3.0044,0.1254,0.2452,0.6115,-11.1652,2.7748,3.2252,0.432,-0.9237,0.6866,-10.5734,-3.6769,2.5345,0.919217,0,1698649701,24
-0.2641,0.6726,0.0249,-0.7666,-0.3109,-0.2907,0.4039,-0.435,12.2367,3.1386,0.2275,0.8037,0.4694,-10.6892,2.7442,3.0963,0.3194,-0.7858,0.8627,-10.1921,-3.4804,2.1971,0.828214,0,1698649701,25
-0.2562,0.7293,0.0087,-0.9638,-0.537,-0.2972,-0.1058,-0.0971,11.5475,3.3078,0.2513,1.3159,0.3291,-10.1495,2.7193,2.9088,0.1467,-0.6003,1.0301,-9.754,-3.2559,1.8643,0.712663,0,1698649701,25
-0.2473,0.7745,-0.01,-1.1558,-0.7509,-0.2587,-0.5802,0.0834,10.9852,3.3844,0.1966,1.7836,0.2057,-9.5822,2.6933,2.6552,-0.1561,-0.446,1.1984,-9.3017,-2.996,1.5533,0.574661,0,1698649701,26
-0.2382,0.8129,-0.031,-1.4187,-0.9068,-0.1615,-0.9878,0.0303,10.5599,3.3087,0.0279,2.2219,0.1499,-9.0346,2.7511,2.3649,-0.5771,-0.3764,1.3394,-8.866,-2.6998,1.2862,0.392438,0,1698649701,27
-0.2294,0.8153,-0.0533,-1.6749,-1.004,-0.04,-1.3181,-0.0599,10.0968,3.159,-0.1806,2.5862,0.1816,-8.5474,2.7752,2.0705,-1.1069,-0.5073,1.4498,-8.4679,-2.3964,1.0754,0.195042,0,1698649701,28
-0.2215,0.7765,-0.0761,-1.8658,-1.0753,0.0774,-1.555,-0.1449,9.55,3.0633,-0.3954,2.8061,0.2479,-8.0694,2.7453,1.7897,-1.6659,-0.6677,1.5909,-8.0858,-2.1079,0.9449,0.012906,0,1698649701,28
-0.2145,0.7323,-0.0987,-1.9594,-1.0361,0.1515,-1.6871,-0.193,8.9365,3.085,-0.6023,2.884,0.3421,-7.6223,2.7469,1.5155,-2.0694,-0.5248,1.6946,-7.7449,-1.8194,0.8548,-0.14696,0,1698649701,29
-0.2088,0.6627,-0.1214,-1.9537,-0.8658,0.2065,-1.6831,-0.1953,8.2259,3.1948,-0.7349,2.7868,0.4655,-7.2836,2.7497,1.2576,-2.3027,-0.2544,1.7231,-7.533,-1.5499,0.7593,-0.276254,0,1698649701,30
-0.2042,0.6004,-0.1445,-2.0045,-0.8035,0.3192,-1.6076,-0.0956,7.95,3.1887,-0.7936,2.4643,0.6065,-7.087,2.8115,1.0519,-2.443,-0.2523,1.7146,-7.4588,-1.3373,0.7079,-0.370905,0,1698649701,30
-0.1996,0.5787,-0.1673,-2.0454,-0.8156,0.4143,-1.4961,-0.0414,8.0373,3.1516,-0.8255,1.941,0.7475,-7.0348,2.9587,0.8905,-2.4471,-0.4253,1.6577,-7.5144,-1.1968,0.6979,-0.416491,0,1698649701,31
-0.1948,0.5706,-0.1894,-2.0253,-0.7499,0.5232,-1.3183,-0.1337,8.1673,3.1329,-0.8657,1.3096,0.8912,-7.1272,3.0901,0.8045,-2.3174,-0.5589,1.5675,-7.6969,-1.1523,0.7479,-0.405428,0,1698649701,32
-0.1902,0.5467,-0.2105,-1.9841,-0.6649,0.9324,-1.0823,-0.1955,8.4094,3.0719,-0.8917,0.7101,1.0505,-7.3304,3.1719,0.848,-2.1536,-0.776,1.4778,-7.952,-1.2015,0.8597,-0.352242,0,1698649701,33
-0.1859,0.5365,-0.2297,-1.9221,-0.5784,1.2801,-0.8264,-0.3494,8.606,3.0705,-0.8822,0.2155,1.2245,-7.6189,3.2675,0.9805,-2.0153,-1.0358,1.4073,-8.2516,-1.3342,1.0254,-0.278779,0,1698649701,33
-0.1804,0.5562,-0.2477,-1.8865,-0.4746,1.349,-0.626,-0.5419,8.8122,3.1194,-0.833,-0.1074,1.4329,-7.9726,3.3519,1.1328,-1.8823,-1.1763,1.3568,-8.5836,-1.5248,1.2628,-0.196699,0,1698649701,34
-0.1735,0.5934,-0.2652,-1.8362,-0.4561,1.4937,-0.5156,-0.6534,9.0009,3.1614,-0.7777,-0.1911,1.6622,-8.3273,3.4586,1.3086,-1.7193,-1.166,1.3287,-8.8868,-1.723,1.5237,-0.133339,0,1698649701,35
-0.1657,0.6501,-0.2815,-1.7345,-0.5142,1.6308,-0.4945,-0.8232,9.3349,3.1446,-0.7646,-0.0567,1.8624,-8.6177,3.5698,1.4716,-1.5331,-0.9911,1.3273,-9.1133,-1.8922,1.7579,-0.133931,0,1698649701,36
-0.1576,0.7018,-0.297,-1.6687,-0.4835,1.6965,-0.5352,-1.0745,9.7733,3.0465,-0.8252,0.2113,2.0025,-8.8514,3.6276,1.5993,-1.3561,-0.7282,1.3543,-9.2638,-1.995,1.912,-0.180328,0,1698649701,36
-0.1495,0.7539,-0.3117,-1.6768,-0.3838,1.7397,-0.6214,-1.3037,10.0316,2.8813,-0.9148,0.5259,2.079,-9.0072,3.6754,1.7075,-1.2118,-0.4788,1.4008,-9.3318,-2.0204,1.9753,-0.230121,0,1698649701,37
-0.1419,0.7984,-0.3258,-1.6948,-0.2203,1.7614,-0.7429,-1.4405,9.9467,2.7795,-0.9845,0.8062,2.1052,-9.0467,3.6901,1.7962,-1.1014,-0.1403,1.4481,-9.3365,-1.989,1.9563,-0.27277,0,1698649702,38
-0.1348,0.7853,-0.3398,-1.6938,-0.1052,1.7553,-0.8824,-1.4214,9.6007,2.7862,-1.0471,1.0264,2.0812,-9.0405,3.7122,1.8474,-1.0591,0.1542,1.5027,-9.3078,-1.9275,1.8838,-0.305048,0,1698649702,38
-0.1284,0.7646,-0.3545,-1.6431,-0.1249,1.719,-1.024,-1.312,9.5188,2.766,-1.1,1.2281,2.0123,-8.9835,3.7457,1.8377,-1.0842,0.3139,1.5706,-9.2401,-1.8658,1.8296,-0.332354,0,1698649702,39
-0.1226,0.7324,-0.369,-1.559,-0.1113,1.6354,-1.1579,-1.288,9.6746,2.6968,-1.124,1.3958,1.9401,-8.8767,3.7348,1.8192,-1.1233,0.5138,1.6226,-9.1445,-1.8118,1.8143,-0.357837,0,1698649702,40
-0.1174,0.6959,-0.3823,-1.4905,-0.0631,1.5415,-1.267,-1.3585,9.5205,2.6482,-1.1035,1.5389,1.8797,-8.7676,3.6964,1.8292,-1.1784,0.6648,1.6518,-9.0461,-1.7596,1.8369,-0.379068,0,1698649702,41
-0.1128,0.6405,-0.3947,-1.4407,-0.1025,1.4557,-1.3628,-1.3388,9.3488,2.5744,-1.0654,1.6799,1.8217,-8.6591,3.6524,1.881,-1.245,0.6952,1.6686,-8.9216,-1.7074,1.8699,-0.398182,0,1698649702,41
-0.1084,0.5667,-0.4061,-1.3962,-0.156,1.3423,-1.4627,-1.3013,9.4664,2.4606,-1.0008,1.8593,1.7604,-8.5518,3.6014,1.9355,-1.2908,0.7298,1.6586,-8.771,-1.6679,1.9001,-0.418468,0,1698649702,42
-0.104,0.5435,-0.416,-1.3221,-0.1405,1.2542,-1.5447,-1.348,9.3503,2.3517,-0.9089,2.0685,1.6882,-8.4297,3.5463,1.9721,-1.3332,0.7926,1.6159,-8.6165,-1.6388,1.9302,-0.437122,0,1698649702,43
-0.099,0.5482,-0.4249,-1.2237,-0.1029,1.1729,-1.6441,-1.3365,9.1342,2.2593,-0.7941,2.2753,1.6048,-8.2958,3.4968,1.9982,-1.4011,0.7953,1.5512,-8.4465,-1.6063,1.9499,-0.450554,0,1698649702,43
-0.0936,0.5538,-0.4333,-1.121,0.0098,1.057,-1.7503,-1.322,8.9672,2.2207,-0.6376,2.4564,1.5323,-8.151,3.4151,1.996,-1.4657,0.7573,1.4703,-8.2664,-1.5671,1.9619,-0.458112,0,1698649702,44
-0.0882,0.573,-0.4405,-1.031,0.1042,0.9746,-1.8532,-1.2898,8.8073,2.1677,-0.4504,2.591,1.4684,-7.9901,3.342,1.9804,-1.4887,0.7338,1.3776,-8.0934,-1.5365,1.9489,-0.459775,0,1698649702,45
-0.0822,0.6167,-0.4466,-0.9251,0.1766,0.9192,-1.9485,-1.2349,8.6587,2.11,-0.2675,2.6744,1.3982,-7.8338,3.3044,1.9496,-1.5005,0.7351,1.275,-7.9445,-1.5193,1.9165,-0.456806,0,1698649702,46
-0.0759,0.6419,-0.4512,-0.811,0.3377,0.8812,-1.9978,-1.177,8.4188,2.0831,-0.0991,2.6624,1.3352,-7.7189,3.2675,1.8911,-1.4867,0.7106,1.1517,-7.8276,-1.5028,1.8788,-0.44969,0,1698649702,46
-0.0699,0.6477,-0.4548,-0.7226,0.4373,0.8918,-2.0037,-1.0724,8.3257,2.024,0.0454,2.5278,1.2676,-7.6496,3.2426,1.845,-1.3899,0.6626,1.0126,-7.748,-1.4919,1.8456,-0.437791,0,1698649702,47
-0.064,0.6591,-0.4576,-0.6348,0.4567,0.9264,-1.9572,-0.9696,8.3865,1.9388,0.121,2.3022,1.1869,-7.6205,3.247,1.8233,-1.2951,0.6389,0.8764,-7.7139,-1.4834,1.8283,-0.419541,0,1698649702,48
-0.0584,0.6385,-0.459,-0.5178,0.4283,0.9771,-1.846,-0.9156,8.4616,1.8381,0.1295,2.012,1.0918,-7.6341,3.2799,1.8206,-1.242,0.5719,0.7459,-7.7255,-1.4677,1.8806,-0.394624,0,1698649702,49
-0.0532,0.6195,-0.4592,-0.3903,0.3679,1.0438,-1.672,-0.8927,8.4896,1.7578,0.0721,1.6681,0.9754,-7.6993,3.3348,1.8652,-1.1674,0.4884,0.6206,-7.7841,-1.4675,1.987,-0.363718,0,1698649702,49
-0.0477,0.6458,-0.4591,-0.2927,0.2775,1.1161,-1.4566,-0.8631,8.4548,1.786,-0.0577,1.3133,0.8423,-7.7977,3.4082,1.9294,-1.0635,0.4405,0.5012,-7.8751,-1.4949,2.0635,-0.325803,0,1698649702,50
-0.0418,0.6715,-0.459,-0.2336,0.1365,1.2267,-1.2212,-0.846,8.5079,1.8244,-0.2531,0.978,0.7032,-7.8958,3.4804,1.9794,-0.9641,0.3701,0.3888,-7.9773,-1.5247,2.1183,-0.28293,0,1698649702,51
-0.0358,0.657,-0.4589,-0.1878,-0.0275,1.3698,-0.9676,-0.8415,8.7196,1.7557,-0.4883,0.6809,0.5602,-7.9726,3.5493,2.0234,-0.9081,0.3027,0.293,-8.0714,-1.5468,2.1794,-0.242413,0,1698649702,51
-0.0302,0.6304,-0.4588,-0.1425,-0.1855,1.5116,-0.7067,-0.8388,8.9405,1.6636,-0.7529,0.4322,0.4125,-8.0204,3.6216,2.0687,-0.9081,0.2724,0.2178,-8.1432,-1.556,2.2185,-0.209062,0,1698649702,52
-0.0245,0.6354,-0.4587,-0.1104,-0.2981,1.6456,-0.4708,-0.8523,9.0635,1.6022,-1.0487,0.2485,0.2526,-8.0509,3.6833,2.1272,-0.9294,0.2873,0.1551,-8.1965,-1.5433,2.2417,-0.180929,0,1698649702,53
-0.0188,0.6507,-0.4586,-0.076,-0.377,1.7599,-0.2535,-0.8886,9.0186,1.5913,-1.3288,0.1006,0.0841,-8.081,3.7353,2.1997,-0.9383,0.3244,0.091,-8.2524,-1.5217,2.2848,-0.153906,0,1698649702,54
-0.0134,0.6289,-0.4584,-0.0493,-0.4698,1.8188,-0.0541,-0.9669,9.0688,1.5752,-1.5591,-0.0483,-0.0673,-8.1084,3.7436,2.2698,-0.9316,0.3413,0.0242,-8.3128,-1.5151,2.3373,-0.127475,0,1698649702,54
-0.0081,0.6037,-0.4581,-0.0316,-0.5717,1.8459,0.123,-1.0923,9.2133,1.4873,-1.7397,-0.2048,-0.1789,-8.1377,3.7147,2.327,-0.9119,0.3092,-0.0413,-8.3764,-1.5281,2.4219,-0.048715,0,1698649702,55
-0.0028,0.6153,-0.4574,-0.0165,-0.6995,1.8601,0.2759,-1.2301,9.3122,1.3278,-1.8723,-0.3188,-0.2732,-8.188,3.7097,2.3749,-0.8829,0.229,-0.0982,-8.4474,-1.5487,2.5258,0.08855,0,1698649702,56
0.0024,0.6264,-0.456,0.0151,-0.7885,1.8106,0.4185,-1.4256,9.4262,1.1425,-1.9267,-0.38,-0.3601,-8.2513,3.7039,2.4366,-0.8383,0.1291,-0.1423,-8.5239,-1.5769,2.6098,0.19049,0,1698649702,57
0.0073,0.6319,-0.4539,0.0843,-0.8883,1.7048,0.5608,-1.6549,9.4789,0.9917,-1.9187,-0.3978,-0.4157,-8.3048,3.7114,2.4964,-0.7729,0.0192,-0.1741,-8.5855,-1.6192,2.6792,0.19729,0,1698649702,57
0.0128,0.6564,-0.4502,0.1654,-0.9572,1.5349,0.7037,-1.9159,9.3918,0.9084,-1.8571,-0.4013,-0.4589,-8.3493,3.7098,2.5468,-0.694,-0.0858,-0.2098,-8.6115,-1.6678,2.726,0.152935,0,1698649702,58
0.0192,0.6615,-0.4446,0.2697,-0.86,1.2794,0.8369,-2.2069,9.1248,0.8777,-1.718,-0.4279,-0.4941,-8.4114,3.6519,2.5835,-0.597,-0.1827,-0.2725,-8.6214,-1.7183,2.7406,0.125896,0,1698649702,59
0.0258,0.6435,-0.4381,0.3613,-0.7214,0.9573,0.9429,-2.4101,9.001,0.7948,-1.5154,-0.452,-0.5215,-8.4794,3.5828,2.6003,-0.4832,-0.2963,-0.357,-8.6297,-1.7795,2.7475,0.083262,0,1698649702,59
0.0329,0.629,-0.4312,0.4452,-0.5251,0.5785,1.0422,-2.5643,8.9573,0.7547,-1.2601,-0.5048,-0.5726,-8.5496,3.5156,2.5888,-0.3642,-0.4417,-0.4669,-8.6185,-1.8482,2.7629,-0.025472,0,1698649702,60
0.0398,0.6097,-0.424,0.5212,-0.238,0.1598,1.1365,-2.7358,8.872,0.8018,-0.9697,-0.5927,-0.6549,-8.6247,3.4484,2.5512,-0.2232,-0.6312,-0.6103,-8.5932,-1.9125,2.7907,-0.167379,0,1698649702,61
0.0461,0.6033,-0.4168,0.5457,0.0216,-0.2642,1.2037,-2.8015,8.925,0.8059,-0.6624,-0.707,-0.7605,-8.6809,3.3913,2.5178,-0.0514,-0.8629,-0.7821,-8.568,-1.9873,2.8286,-0.294419,0,1698649702,62
0.0522,0.6022,-0.4106,0.5714,0.2258,-0.6848,1.2346,-2.7164,8.9605,0.8189,-0.3682,-0.8435,-0.8827,-8.7208,3.3489,2.507,0.1118,-1.203,-0.9676,-8.5727,-2.0702,2.8685,-0.398793,0,1698649702,62
0.0575,0.5971,-0.4056,0.5833,0.4203,-1.1069,1.2245,-2.568,9.079,0.8466,-0.0784,-0.9776,-0.998,-8.7671,3.3104,2.5377,0.265,-1.5873,-1.1551,-8.6052,-2.1354,2.9128,-0.49027,0,1698649702,63
0.0621,0.5726,-0.4015,0.5432,0.5977,-1.4918,1.1903,-2.4108,9.3343,0.8356,0.2174,-1.1082,-1.1046,-8.8177,3.294,2.6019,0.4351,-1.8168,-1.3382,-8.6334,-2.1786,2.9667,-0.569067,0,1698649702,64
0.0667,0.5415,-0.3988,0.4699,0.7065,-1.7917,1.1176,-2.263,9.5684,0.7992,0.4736,-1.2565,-1.2181,-8.8564,3.3249,2.6926,0.5937,-1.9235,-1.4984,-8.6799,-2.2135,3.0404,-0.60644,0,1698649702,64
0.0716,0.5476,-0.398,0.3794,0.7502,-2.0399,0.9888,-1.9903,9.8644,0.6801,0.6786,-1.4424,-1.3284,-8.8903,3.3623,2.8085,0.7134,-2.0711,-1.6236,-8.7561,-2.2398,3.1439,-0.59927,0,1698649702,65
0.0767,0.5421,-0.398,0.2836,0.8846,-2.2856,0.8606,-1.6956,10.0114,0.5346,0.8472,-1.661,-1.4226,-8.9294,3.3817,2.9531,0.826,-2.2727,-1.7166,-8.8506,-2.2538,3.2897,-0.547606,0,1698649702,66
0.0818,0.5205,-0.398,0.2105,1.1092,-2.49,0.738,-1.4857,10.0083,0.3965,0.9628,-1.9279,-1.5026,-8.9884,3.4104,3.1236,1.0183,-2.3816,-1.7872,-8.9368,-2.2689,3.4327,-0.463431,0,1698649702,67
0.0871,0.5175,-0.398,0.1635,1.247,-2.613,0.607,-1.3087,10.0206,0.2844,1.0065,-2.2997,-1.5843,-9.0701,3.4666,3.2882,1.3049,-2.403,-1.8522,-9.0409,-2.3031,3.5429,-0.384472,0,1698649702,67
0.0931,0.5254,-0.3977,0.1395,1.3549,-2.6822,0.4593,-1.2159,10.0804,0.2166,0.9979,-2.8023,-1.6844,-9.2067,3.5071,3.3844,1.5428,-2.6166,-1.9283,-9.2108,-2.4003,3.6652,-0.320021,0,1698649702,68
0.0993,0.5497,-0.3964,0.1641,1.5435,-2.7597,0.2942,-1.1893,10.2984,0.2174,0.9708,-3.3939,-1.7758,-9.3949,3.5286,3.4651,1.6799,-3.0927,-2.0095,-9.4138,-2.5591,3.7914,-0.269332,0,1698649702,69
0.1046,0.5292,-0.3921,0.2843,1.6363,-2.9938,0.0228,-1.3206,11.1752,0.1036,0.9267,-3.9982,-1.84,-9.6076,3.5483,3.5566,1.8571,-3.419,-2.122,-9.5967,-2.733,3.906,-0.230412,0,1698649702,70
0.1088,0.4686,-0.384,0.4735,1.6181,-3.1339,-0.2007,-1.42,11.9479,0.1746,0.8353,-4.5776,-1.8898,-9.8629,3.6069,3.6018,2.085,-3.6042,-2.2691,-9.8344,-2.901,3.9918,-0.200052,0,1698649702,70
0.1119,0.4299,-0.3722,0.7041,1.6755,-2.9623,-0.2943,-1.2545,12.0991,0.603,0.7644,-5.1648,-1.903,-10.2013,3.7211,3.6344,2.2059,-3.8905,-2.3884,-10.2018,-3.0833,4.0609,-0.175098,0,1698649702,71
0.1134,0.3761,-0.3568,0.9775,1.8982,-2.7498,-0.4581,-1.007,12.3815,1.1657,0.7655,-5.6942,-1.8885,-10.6049,3.8461,3.6836,2.1847,-4.1639,-2.4436,-10.6208,-3.2641,4.1391,-0.154555,0,1698649702,72
0.1134,0.2821,-0.3398,1.2183,2.2382,-2.5813,-0.7124,-0.7416,12.551,1.9373,0.7127,-6.0022,-1.8593,-10.9874,3.9342,3.7509,2.1358,-4.2587,-2.4405,-11.019,-3.3889,4.1969,-0.138665,0,1698649702,72
0.113,0.1995,-0.3231,1.3437,2.5228,-2.3081,-1.001,-0.4645,12.5665,2.7078,0.5533,-6.0131,-1.7881,-11.3176,3.9451,3.7332,2.1507,-4.167,-2.5914,-11.3772,-3.4606,4.2143,-0.1234,0,1698649702,73
0.1119,0.1114,-0.3084,1.3588,2.6671,-1.9221,-1.3548,-0.3181,12.2653,3.4524,0.3783,-5.691,-1.6502,-11.5442,3.8517,3.6796,2.2339,-3.8725,-2.6141,-11.6332,-3.4995,4.1778,-0.106152,0,1698649702,74
0.1083,-0.0478,-0.2963,1.3069,2.7076,-1.6077,-1.748,-0.2438,11.9623,3.9035,0.302,-5.1731,-1.462,-11.6809,3.6739,3.6107,2.3266,-3.4077,-2.3275,-11.7439,-3.5263,4.0656,-0.014073,0,1698649702,75
0.1009,-0.2505,-0.2862,1.2123,2.6675,-1.263,-2.0006,-0.1552,12.167,3.9618,0.4362,-4.5758,-1.3031,-11.6743,3.4743,3.4246,2.4369,-2.8874,-2.0435,-11.6254,-3.5572,3.8426,0.160085,0,1698649702,75
0.0891,-0.4945,-0.2772,1.1164,2.4718,-0.8922,-2.1192,-0.255,12.3478,3.9261,0.7058,-3.9328,-1.2001,-11.415,3.2038,3.1879,2.6045,-2.127,-1.7453,-11.2156,-3.5513,3.5537,0.333404,0,1698649702,76
0.0732,-0.7983,-0.2685,1.0409,2.3352,-0.7124,-2.1466,-0.4808,12.1737,3.8999,1.0157,-3.1804,-1.1125,-10.9706,2.9387,2.8837,2.8198,-0.9603,-1.4183,-10.6428,-3.4831,3.1981,0.48089,0,1698649702,77
0.054,-1.0784,-0.2592,1.0536,2.2632,-0.6315,-2.0298,-0.7426,11.5015,3.8617,1.3042,-2.3104,-1.0325,-10.4079,2.7488,2.5405,3.0194,0.332,-1.0851,-9.9878,-3.4138,2.7999,0.596387,0,1698649702,78
0.0318,-1.3236,-0.2485,1.089,2.0138,-0.5687,-1.7848,-1.0846,10.6325,3.7471,1.5018,-1.3892,-1.0751,-9.8056,2.6037,2.1823,3.16,1.4388,-0.7973,-9.2989,-3.3573,2.4159,0.683928,0,1698649702,78
0.0072,-1.553,-0.2356,1.0964,1.6318,-0.5505,-1.4582,-1.369,10.0508,3.5073,1.6161,-0.6959,-1.1875,-9.2753,2.4313,1.8704,3.2616,2.3062,-0.595,-8.6666,-3.2712,1.9826,0.748122,0,1698649702,79
-0.0183,-1.809,-0.2211,1.2001,1.2711,-0.5757,-1.0929,-1.5687,9.7598,3.2349,1.6589,-0.3253,-1.2919,-8.843,2.305,1.6704,3.3421,2.8921,-0.4669,-8.1431,-3.1626,1.5498,0.797935,0,1698649702,80
-0.0436,-2.0415,-0.2062,1.2894,1.17,-0.683,-0.741,-1.6106,9.4927,3.1316,1.7799,-0.2487,-1.4436,-8.4827,2.1697,1.527,3.42,3.2544,-0.4236,-7.7509,-3.0401,1.2396,0.839216,0,1698649702,80
-0.068,-2.1303,-0.1918,1.3102,1.1169,-0.837,-0.425,-1.4397,9.03,3.1693,1.9667,-0.4781,-1.5956,-8.1916,2.0042,1.4648,3.4882,3.4514,-0.4531,-7.4831,-2.9115,1.0444,0.872637,0,1698649702,81
-0.0915,-2.1197,-0.1783,1.3165,0.8721,-0.9371,-0.1506,-1.1776,8.8357,3.186,2.1425,-0.8685,-1.6864,-7.9781,1.9321,1.5082,3.5088,3.5337,-0.5271,-7.3599,-2.771,0.9443,0.898803,0,1698649702,82
-0.1141,-2.078,-0.1665,1.2777,0.6205,-0.9501,0.0659,-0.8069,9.0721,3.1979,2.3124,-1.3635,-1.6853,-7.8141,1.9201,1.6152,3.4634,3.1894,-0.6587,-7.3644,-2.6193,0.9529,0.919338,0,1698649702,83
-0.1361,-2.0926,-0.1564,1.2077,0.5129,-0.9448,0.2707,-0.4787,9.1397,3.3346,2.5934,-1.7769,-1.589,-7.7236,2.0586,1.7471,3.3805,2.4362,-0.8444,-7.4622,-2.4834,1.052,0.936369,0,1698649702,83
-0.1577,-2.1297,-0.1485,1.1107,0.449,-0.9202,0.4682,-0.2312,9.0835,3.4368,2.7077,-2.0486,-1.4393,-7.7188,2.2916,1.9001,3.2402,1.6433,-1.0253,-7.6449,-2.382,1.2055,0.950296,0,1698649702,84
-0.1789,-2.1631,-0.1428,0.9882,0.3294,-0.8083,0.6403,0.0267,9.1061,3.4314,2.5451,-2.2358,-1.2488,-7.7728,2.4509,2.0743,3.0307,0.9652,-1.1454,-7.8525,-2.3205,1.3442,0.961322,0,1698649702,85
-0.1999,-2.1917,-0.1382,0.8653,0.205,-0.6864,0.8285,0.1004,9.0776,3.4559,2.389,-2.3045,-1.0156,-7.8757,2.5361,2.2551,2.7853,0.6123,-1.1986,-8.0415,-2.2852,1.414,0.969946,0,1698649702,86
-0.2204,-2.127,-0.1345,0.7485,0.0521,-0.5346,0.9815,0.1288,9.1429,3.3618,2.2072,-2.1797,-0.7911,-8.0232,2.5986,2.3989,2.5035,0.5343,-1.1905,-8.2026,-2.2963,1.4439,0.976651,0,1698649702,86
-0.2403,-2.028,-0.1314,0.6381,-0.0436,-0.4014,1.0825,0.1888,9.1881,3.1978,2.0174,-1.9073,-0.6218,-8.2132,2.6207,2.4983,2.1687,0.5435,-1.128,-8.3354,-2.3607,1.4652,0.981837,0,1698649702,87
-0.2588,-1.9622,-0.1282,0.5821,-0.0225,-0.2996,1.172,0.4003,9.1798,3.144,1.8513,-1.5457,-0.5201,-8.411,2.5905,2.5775,1.8081,0.5813,-1.0343,-8.4409,-2.4592,1.4781,0.985741,0,1698649702,88
-0.2763,-1.921,-0.1238,0.5786,-0.036,-0.2112,1.2458,0.4256,9.0032,3.1735,1.695,-1.1174,-0.4581,-8.5833,2.5219,2.6485,1.4948,0.6926,-0.9376,-8.5133,-2.5787,1.5094,0.9876,0,1698649702,88
-0.2938,-1.869,-0.1178,0.6063,-0.0788,-0.1987,1.2843,0.1587,8.8491,3.1126,1.5446,-0.6825,-0.4245,-8.7369,2.4296,2.7067,1.2531,0.8343,-0.8583,-8.5727,-2.6918,1.5843,0.986014,0,1698649702,89
-0.311,-1.8295,-0.1111,0.6434,-0.0345,-0.2376,1.281,0.0147,8.9804,2.9465,1.4516,-0.2816,-0.4103,-8.8389,2.3325,2.7598,1.0492,0.9572,-0.7932,-8.5916,-2.7834,1.6817,0.980989,0,1698649702,90
-0.3277,-1.7813,-0.104,0.688,0.0408,-0.3309,1.2512,-0.1123,9.0126,2.8844,1.4007,0.0877,-0.4121,-8.855,2.2632,2.8097,0.9113,1.1959,-0.7112,-8.5523,-2.8575,1.7681,0.963171,0,1698649702,91
-0.3439,-1.7545,-0.0966,0.723,0.1248,-0.4136,1.2187,-0.2014,9.0147,2.7805,1.3612,0.4249,-0.4228,-8.8267,2.2166,2.8466,0.8681,1.6565,-0.6381,-8.4942,-2.9087,1.8373,0.873975,0,1698649702,91
-0.3594,-1.7724,-0.0897,0.7196,0.208,-0.4932,1.207,-0.2772,9.0452,2.6453,1.3382,0.7226,-0.4406,-8.7653,2.1994,2.8795,0.8116,1.9716,-0.6086,-8.4331,-2.9358,1.9071,0.661345,0,1698649702,92
-0.3735,-1.7065,-0.0833,0.6961,0.2394,-0.5976,1.2201,-0.3604,9.0426,2.5745,1.3075,0.9444,-0.4714,-8.6602,2.2149,2.924,0.6918,1.9394,-0.578,-8.3725,-2.9508,1.991,0.393261,0,1698649702,93
-0.3864,-1.5768,-0.0772,0.6551,0.2663,-0.6787,1.2568,-0.3577,9.1366,2.4856,1.2487,1.1022,-0.5072,-8.5514,2.2275,2.9452,0.6047,1.9289,-0.5372,-8.2923,-2.9538,2.062,0.156214,0,1698649702,93
-0.3982,-1.4781,-0.0717,0.6013,0.2267,-0.6854,1.3227,-0.2987,9.2414,2.3957,1.1622,1.2248,-0.5385,-8.451,2.23,2.9264,0.5737,2.0887,-0.5131,-8.2017,-2.9584,2.1266,-0.035629,0,1698649702,94
-0.4093,-1.3865,-0.0667,0.5603,0.086,-0.6523,1.4071,-0.2005,9.3078,2.3226,1.0447,1.3259,-0.5517,-8.3501,2.2173,2.8961,0.5471,2.1974,-0.4783,-8.1262,-2.9717,2.2101,-0.185453,0,1698649702,95
-0.4187,-1.2692,-0.0619,0.536,-0.0701,-0.6164,1.4923,-0.0224,9.3822,2.3092,0.9193,1.4344,-0.533,-8.269,2.1836,2.8816,0.6056,2.1821,-0.435,-8.0534,-2.9739,2.2403,-0.232519,0,1698649702,96
-0.4265,-1.1592,-0.0575,0.5163,-0.2204,-0.5808,1.5636,0.1427,9.5594,2.2522,0.8168,1.5646,-0.4895,-8.1953,2.1401,2.8943,0.7704,2.2904,-0.404,-7.9723,-2.9651,2.2559,-0.155389,0,1698649702,96
-0.4328,-1.0307,-0.054,0.4802,-0.3703,-0.5088,1.6207,0.1574,9.5591,2.1604,0.71,1.7118,-0.425,-8.0895,2.1018,2.8893,0.895,2.4683,-0.3432,-7.897,-2.9374,2.3413,-0.011921,0,1698649702,97
-0.4374,-0.8914,-0.0511,0.4435,-0.6035,-0.366,1.6522,0.1701,9.5086,2.0666,0.592,1.8244,-0.3561,-7.9661,2.0808,2.8728,0.9424,2.6065,-0.2679,-7.8345,-2.9002,2.4221,0.137106,0,1698649702,98
-0.4411,-0.76,-0.0479,0.4439,-0.8537,-0.2082,1.6503,0.2526,9.5582,1.9278,0.4927,1.8632,-0.3197,-7.8828,2.0776,2.871,0.9374,2.7257,-0.1889,-7.7889,-2.8571,2.4404,0.221859,0,1698649702,99
-0.4436,-0.6182,-0.044,0.455,-0.9994,-0.0822,1.584,0.3555,9.4288,1.8101,0.3756,1.827,-0.3059,-7.8713,2.0794,2.9174,0.8713,2.693,-0.091,-7.7725,-2.8116,2.4068,0.269004,0,1698649702,99
-0.4444,-0.4796,-0.0401,0.4396,-1.0496,-0.0091,1.455,0.4229,9.2468,1.7502,0.2462,1.7605,-0.2509,-7.8779,2.0634,2.9717,0.7322,2.5501,-0.0021,-7.7811,-2.7751,2.3532,0.320601,0,1698649702,0
-0.4443,-0.3675,-0.0366,0.4193,-1.1226,0.0639,1.2926,0.4351,9.1351,1.6804,0.1841,1.6696,-0.1553,-7.8525,2.0516,2.9892,0.5407,2.4041,0.0763,-7.7795,-2.7479,2.2699,0.33877,0,1698649702,1
-0.4443,-0.2839,-0.0329,0.4169,-1.1887,0.1257,1.0966,0.4652,9.0761,1.593,0.1478,1.5206,-0.07,-7.8315,2.0354,3.0351,0.3254,2.2711,0.1551,-7.7611,-2.7388,2.1645,0.321508,0,1698649702,1
-0.4442,-0.2264,-0.0283,0.4552,-1.1855,0.1405,0.9145,0.3592,8.9039,1.5757,0.0616,1.3896,0.0125,-7.847,2.0148,3.0845,0.0994,2.0971,0.2214,-7.7642,-2.7459,2.0875,0.29238,0,1698649702,2
-0.4441,-0.1749,-0.0226,0.4935,-1.1924,0.1477,0.733,0.2555,8.7121,1.5173,-0.0241,1.327,0.114,-7.9162,1.9948,3.0886,-0.1162,1.8758,0.2695,-7.7987,-2.7722,2.0742,0.250284,0,1698649702,3
-0.444,-0.1275,-0.0163,0.5094,-1.1764,0.1541,0.5264,0.2166,8.7019,1.3835,-0.0659,1.3039,0.2176,-8.0039,1.9756,3.0795,-0.3024,1.6418,0.3128,-7.8386,-2.8192,2.1208,0.205476,0,1698649702,3
-0.4439,-0.0962,-0.0099,0.552,-1.1555,0.166,0.3285,0.1279,8.8113,1.2577,-0.0771,1.2911,0.3091,-8.0683,1.9515,3.0887,-0.4564,1.3952,0.3661,-7.879,-2.8679,2.1861,0.16441,0,1698649702,4
-0.4435,-0.0679,-0.0033,0.6183,-1.1129,0.1675,0.1628,0.0587,8.9975,1.1121,-0.0781,1.2897,0.4032,-8.1201,1.9122,3.1269,-0.5751,1.1458,0.4313,-7.9207,-2.9074,2.2473,0.121524,0,1698649702,5
-0.4423,-0.0259,0.0033,0.6582,-1.003,0.1465,0.0154,0.0729,9.0628,1.0257,-0.0874,1.2792,0.4976,-8.1551,1.8873,3.1645,-0.6546,0.9162,0.5033,-7.9352,-2.9364,2.3047,0.066467,0,1698649702,6
-0.4401,0.0425,0.0097,0.6716,-0.8947,0.126,-0.1307,0.1779,8.9927,1.0255,-0.1364,1.2021,0.5693,-8.1571,1.8996,3.1735,-0.707,0.7157,0.5873,-7.9393,-2.9478,2.3487,0.006603,0,1698649702,6
-0.4365,0.1335,0.0168,0.6969,-0.756,0.0972,-0.2774,0.2681,8.9265,1.0448,-0.2358,1.0518,0.6257,-8.1635,1.9336,3.1775,-0.7348,0.5396,0.6662,-7.9708,-2.9427,2.3703,-0.042563,0,1698649702,7
-0.4315,0.226,0.024,0.7061,-0.5733,0.0851,-0.4348,0.3606,8.835,1.0619,-0.3378,0.8755,0.6884,-8.2056,1.9657,3.1838,-0.7446,0.3533,0.7241,-8.022,-2.9214,2.3751,-0.081949,0,1698649702,8
-0.425,0.2914,0.0313,0.7325,-0.3684,0.1413,-0.5476,0.4757,8.6947,1.103,-0.4007,0.7206,0.7592,-8.2706,2.0024,3.2114,-0.7538,0.1448,0.7571,-8.0826,-2.8989,2.3796,-0.115125,0,1698649702,8
-0.4184,0.3601,0.0393,0.7839,-0.0745,0.2106,-0.5936,0.5887,8.6729,1.1625,-0.4139,0.6071,0.8406,-8.3482,2.0375,3.2607,-0.7738,-0.0624,0.7691,-8.1436,-2.8924,2.4067,-0.131482,0,1698649702,9
-0.4116,0.4523,0.0472,0.8352,0.2134,0.2874,-0.6156,0.6914,8.6856,1.2528,-0.4096,0.5172,0.9225,-8.4156,2.0769,3.3072,-0.8166,-0.2583,0.7733,-8.2075,-2.8941,2.4651,-0.106645,0,1698649703,10
-0.4042,0.5178,0.0547,0.8476,0.4114,0.4271,-0.6216,0.8155,8.755,1.3649,-0.4403,0.4304,0.993,-8.4792,2.1216,3.3661,-0.8754,-0.3985,0.7706,-8.2903,-2.9023,2.5372,-0.032574,0,1698649703,10
-0.3971,0.5555,0.0617,0.7949,0.4809,0.6166,-0.628,0.9624,9.053,1.4076,-0.517,0.334,1.0631,-8.5526,2.1687,3.4362,-0.9551,-0.5696,0.772,-8.3763,-2.9109,2.6047,0.057164,0,1698649703,11
-0.3899,0.5962,0.0679,0.7324,0.5195,0.82,-0.6159,0.9745,9.2404,1.4333,-0.6312,0.2165,1.1303,-8.6166,2.2124,3.5039,-1.0648,-0.8039,0.7883,-8.4583,-2.9164,2.678,0.119978,0,1698649703,12
-0.3833,0.6062,0.0737,0.6766,0.6245,1.0215,-0.5853,0.8986,9.2766,1.4786,-0.7454,0.0664,1.1817,-8.6848,2.2477,3.5715,-1.1917,-1.0208,0.8079,-8.5396,-2.9373,2.7536,0.171301,0,1698649703,13
-0.3777,0.5879,0.0787,0.6105,0.6242,1.2419,-0.5606,0.8858,9.4527,1.4427,-0.8273,-0.1107,1.2156,-8.7701,2.2882,3.6532,-1.3346,-1.1834,0.8247,-8.6001,-2.9599,2.8313,0.21957,0,1698649703,13
-0.3733,0.5539,0.0824,0.5445,0.5917,1.4625,-0.5167,0.8952,9.8074,1.2916,-0.896,-0.29,1.2207,-8.8486,2.3355,3.7222,-1.507,-1.348,0.8625,-8.6423,-2.9869,2.9096,0.225467,0,1698649703,14
-0.3704,0.4771,0.0862,0.501,0.6047,1.6731,-0.4238,0.8517,9.9945,1.1339,-1.0031,-0.4565,1.1939,-8.923,2.3775,3.7603,-1.6503,-1.5278,0.9098,-8.6919,-3.0105,2.9685,0.202155,0,1698649703,15
-0.3694,0.3803,0.0902,0.4714,0.5714,1.9082,-0.3073,0.828,10.0152,0.9764,-1.1612,-0.6105,1.1476,-9.0299,2.4166,3.8012,-1.7027,-1.5942,0.9201,-8.767,-3.0432,3.0159,0.203065,0,1698649703,15
-0.37,0.2902,0.0936,0.4368,0.6741,2.1173,-0.1981,0.888,10.019,0.8025,-1.3582,-0.7779,1.0911,-9.1619,2.463,3.8719,-1.7699,-1.8077,0.9008,-8.8837,-3.1037,3.0823,0.255813,0,1698649703,16
-0.3705,0.2136,0.0963,0.3922,0.8622,2.3231,-0.0835,0.9292,10.0708,0.626,-1.6109,-1.0102,1.0251,-9.297,2.5458,3.9402,-1.9081,-2.2598,0.8867,-9.029,-3.1632,3.1909,0.331163,0,1698649703,17
-0.3704,0.1593,0.0987,0.3596,0.9563,2.5929,0.0192,0.9492,10.3482,0.4429,-1.9657,-1.3074,0.9389,-9.438,2.6392,3.9991,-2.0411,-2.6579,0.8894,-9.1994,-3.214,3.2987,0.400116,0,1698649703,17
-0.3695,0.1599,0.1006,0.3252,1.2092,2.6951,0.1075,0.8249,10.8416,0.2766,-2.4228,-1.6464,0.8592,-9.6008,2.7637,4.0778,-2.1316,-2.8733,0.8847,-9.4149,-3.2649,3.3737,0.49729,0,1698649703,18
-0.3664,0.2201,0.1021,0.2763,1.53,2.7029,0.2247,0.5817,11.1505,0.1373,-2.927,-2.1254,0.8339,-9.7926,2.928,4.1496,-2.2888,-3.2094,0.8656,-9.694,-3.3318,3.449,0.608962,0,1698649703,19
-0.3598,0.3361,0.1026,0.2242,1.6293,2.6809,0.3463,0.3449,11.4813,0.5102,-3.397,-2.632,0.8458,-10.0791,3.0919,4.2663,-2.5003,-3.6443,0.8406,-10.0871,-3.4275,3.5067,0.696265,0,1698649703,19
-0.3488,0.5464,0.1025,0.1651,1.5001,2.6347,0.4766,-0.3118,11.6987,1.2419,-3.716,-2.9454,0.9019,-10.4793,3.243,4.4446,-2.6425,-3.8159,0.817,-10.5446,-3.5136,3.5916,0.764079,0,1698649703,20
-0.3338,0.8007,0.1022,0.1101,1.2447,2.7873,0.6349,-0.9259,12.0047,1.6341,-3.8786,-3.0236,1.0068,-10.928,3.3332,4.5783,-2.7342,-4.0617,0.8105,-10.9924,-3.6112,3.6981,0.816753,0,1698649703,21
-0.3172,1.0403,0.1015,0.0259,1.2704,2.8358,0.8891,-1.448,12.604,1.7963,-3.9171,-2.8473,1.1224,-11.3442,3.3518,4.619,-2.7586,-4.3208,0.837,-11.3456,-3.7371,3.7986,0.857666,0,1698649703,22
-0.3011,1.2066,0.0991,-0.0984,1.5878,2.5753,1.2365,-2.1711,13.0048,1.9271,-3.7894,-2.4335,1.2394,-11.6659,3.2899,4.5603,-2.6658,-4.2664,0.8746,-11.5312,-3.8452,3.8635,0.889405,0,1698649703,22
-0.2868,1.2408,0.0935,-0.2529,1.8037,2.2153,1.5541,-2.5889,13.0807,2.1126,-3.5189,-1.8522,1.3261,-11.8692,3.2325,4.3961,-2.4958,-4.2045,0.9073,-11.5665,-3.9148,3.7896,0.829645,0,1698649703,23
-0.2747,1.2121,0.0847,-0.4588,1.5419,2.1649,1.6764,-2.6919,12.8245,2.6849,-3.1852,-1.2736,1.3482,-11.9245,3.1894,4.1298,-2.2658,-4.2417,0.9377,-11.4606,-3.914,3.5956,0.69905,0,1698649703,24
-0.265,1.1417,0.0727,-0.712,1.2328,1.8854,1.7526,-2.7866,12.8727,3.5891,-2.8374,-0.7459,1.3169,-11.84,3.1317,3.8543,-1.9669,-4.0907,0.9375,-11.2177,-3.8124,3.3461,0.599249,0,1698649703,24
-0.2577,1.025,0.0573,-0.9799,1.0362,1.244,1.8544,-2.7455,13.0769,3.9557,-2.5741,-0.1672,1.1971,-11.5522,3.1208,3.6371,-1.7135,-3.7724,0.9493,-10.8372,-3.6009,3.0689,0.526979,0,1698649703,25
-0.2524,0.8944,0.0381,-1.185,0.6807,0.9409,1.8167,-2.1905,12.5871,3.8417,-2.3576,0.5422,0.9983,-11.0508,3.108,3.3916,-1.5993,-3.3538,1.0283,-10.327,-3.3,2.775,0.4756,0,1698649703,26
-0.2482,0.7691,0.0165,-1.3337,0.3228,0.7822,1.7056,-1.6314,12.1455,3.7425,-2.0889,1.2866,0.792,-10.4362,3.0973,3.0797,-1.5975,-2.7006,1.1357,-9.7318,-2.9747,2.436,0.438346,0,1698649703,26
-0.2433,0.7037,-0.0086,-1.5695,0.0567,0.6206,1.5307,-1.1683,11.8423,3.6213,-1.87,1.887,0.5329,-9.7154,3.0634,2.7946,-1.7018,-1.9154,1.2558,-9.1423,-2.6592,2.08,0.414193,0,1698649703,27
-0.2365,0.7237,-0.0354,-1.876,-0.0921,0.5837,1.3293,-0.6966,11.0089,3.5908,-1.8465,2.3465,0.2217,-8.958,2.9878,2.5184,-1.9141,-1.2485,1.4011,-8.5754,-2.3286,1.7316,0.385757,0,1698649703,28
-0.2287,0.7627,-0.0607,-2.1716,-0.4147,0.7152,1.1123,-0.3283,10.166,3.5673,-1.9834,2.7418,-0.0806,-8.2373,2.95,2.202,-2.1496,-0.5557,1.565,-8.0316,-1.9849,1.383,0.325843,0,1698649703,28
-0.2211,0.7577,-0.0864,-2.4019,-0.7104,0.8949,0.9088,0.0024,9.443,3.5018,-2.1476,2.9729,-0.3315,-7.5999,2.9342,1.8389,-2.3556,0.3914,1.7332,-7.5967,-1.6373,1.064,0.253047,0,1698649703,29
-0.2133,0.748,-0.1133,-2.4911,-0.8489,1.0183,0.7524,0.147,8.8471,3.3865,-2.3204,2.9556,-0.4957,-7.1242,2.9169,1.4564,-2.5208,1.3571,1.8324,-7.3096,-1.3929,0.9414,0.23167,0,1698649703,30
-0.2055,0.7695,-0.1413,-2.546,-0.9028,1.1073,0.6208,0.1612,8.5493,3.2232,-2.4818,2.7837,-0.5389,-6.8467,2.854,1.2154,-2.5987,1.8797,1.7927,-7.1377,-1.2752,0.9643,0.184974,0,1698649703,31
-0.1982,0.7708,-0.1685,-2.5461,-0.8672,1.2191,0.5381,0.0782,8.3827,3.1731,-2.5203,2.4789,-0.4498,-6.7741,2.7276,1.1608,-2.6576,1.7829,1.6331,-7.1207,-1.2408,0.9906,0.083561,0,1698649703,31
-0.1914,0.7277,-0.1939,-2.4749,-0.888,1.3928,0.4875,-0.0708,8.3568,3.0801,-2.3193,2.0401,-0.2749,-6.8811,2.5661,1.2344,-2.8209,0.9679,1.4291,-7.2537,-1.3196,1.08,0.068313,0,1698649703,32
-0.1851,0.6789,-0.2174,-2.382,-0.9315,1.544,0.4465,-0.2637,8.4892,3.0114,-1.9143,1.5195,-0.0563,-7.1106,2.4372,1.3947,-3.021,-0.161,1.2144,-7.4538,-1.4795,1.236,0.088262,0,1698649703,33
-0.1786,0.6603,-0.2392,-2.2854,-0.8554,1.5966,0.4173,-0.5015,8.5376,3.081,-1.3722,1.0658,0.2515,-7.4292,2.3678,1.5679,-3.1484,-1.0089,0.9368,-7.7043,-1.6648,1.469,0.018308,0,1698649703,33
-0.1717,0.6822,-0.2601,-2.2063,-0.7536,1.6332,0.3451,-0.7779,8.7785,3.0332,-0.8011,0.6332,0.5451,-7.7962,2.3278,1.7056,-3.0104,-1.1895,0.6599,-7.9791,-1.8919,1.7023,-0.115215,0,1698649703,34
-0.1644,0.7143,-0.2802,-2.1216,-0.6541,1.5824,0.2064,-1.1842,9.0894,2.9418,-0.3439,0.3168,0.7373,-8.155,2.3649,1.807,-2.7029,-0.9104,0.4984,-8.2556,-2.1477,1.8506,-0.230576,0,1698649703,35
-0.1564,0.7284,-0.2997,-2.0792,-0.5274,1.3946,0.0305,-1.6374,9.3601,2.8719,0.0018,0.3693,0.879,-8.5109,2.4904,1.8434,-2.505,-0.8241,0.4157,-8.4931,-2.3592,1.9102,-0.333073,0,1698649703,35
-0.1479,0.7316,-0.3183,-2.0758,-0.4775,1.173,-0.1462,-2.037,9.6034,2.7273,0.2286,0.7032,0.9635,-8.8349,2.6572,1.8493,-2.3147,-0.5899,0.3335,-8.6626,-2.505,1.9341,-0.442024,0,1698649703,36
-0.1395,0.7495,-0.3361,-2.0324,-0.4729,0.9999,-0.3397,-2.2619,9.6617,2.4831,0.3502,1.1117,0.9839,-9.1021,2.8011,1.8494,-2.0995,-0.1661,0.2586,-8.8149,-2.6055,1.9823,-0.532616,0,1698649703,37
-0.1315,0.7555,-0.3531,-1.9206,-0.3304,0.6712,-0.5122,-2.3943,9.6888,2.3927,0.3901,1.4597,0.9035,-9.2805,2.8787,1.8376,-1.9196,0.0327,0.2362,-8.951,-2.6669,2.0494,-0.601141,0,1698649703,38
-0.1241,0.7322,-0.37,-1.8484,-0.074,0.1143,-0.6401,-2.7201,9.7617,2.4336,0.3726,1.707,0.7439,-9.3522,2.9184,1.8668,-1.6989,0.1148,0.2426,-9.0434,-2.6759,2.094,-0.606541,0,1698649703,38
-0.1173,0.7057,-0.3858,-1.8055,0.1243,-0.3772,-0.7668,-3.0349,9.6666,2.3136,0.3666,1.8104,0.5407,-9.3516,2.9629,1.9051,-1.3902,0.2125,0.2562,-9.0994,-2.6767,2.1202,-0.568233,0,1698649703,39
-0.1114,0.6691,-0.3993,-1.6952,0.2485,-0.7606,-0.8814,-3.0827,9.4943,2.1744,0.379,1.8158,0.3223,-9.3169,3.0271,1.9066,-1.0542,0.2766,0.2888,-9.1253,-2.6592,2.1479,-0.54347,0,1698649703,40
-0.1058,0.6421,-0.4112,-1.5577,0.2828,-1.1478,-1.0292,-2.8546,9.4786,2.1425,0.4091,1.8114,0.1561,-9.2535,3.0933,1.8944,-0.7421,0.3357,0.3389,-9.1362,-2.5916,2.2018,-0.524129,0,1698649703,40
-0.1001,0.6213,-0.4217,-1.4148,0.3673,-1.5509,-1.1696,-2.9563,9.3202,2.1431,0.4623,1.837,0.0722,-9.1629,3.1749,1.8865,-0.4298,0.4353,0.3821,-9.1162,-2.507,2.2766,-0.488855,0,1698649703,41
-0.0947,0.5954,-0.431,-1.2721,0.4875,-1.8862,-1.2922,-3.0828,9.1865,2.0655,0.5488,1.8569,0.0513,-9.0797,3.2652,1.9239,-0.0926,0.6047,0.3977,-9.0458,-2.4271,2.3419,-0.3986,0,1698649703,42
-0.09,0.5659,-0.4389,-1.1655,0.7377,-2.1142,-1.4702,-2.6092,9.4641,1.9047,0.6824,1.8928,0.0666,-8.9905,3.2881,1.999,0.2025,0.7447,0.3869,-8.9548,-2.3645,2.3931,-0.294458,0,1698649703,42
-0.0853,0.544,-0.4458,-1.0556,0.8835,-2.3134,-1.68,-2.1664,9.6628,1.8667,0.8996,1.9496,0.1084,-8.8856,3.2431,2.0514,0.4497,0.7786,0.3776,-8.836,-2.3071,2.4225,-0.219177,0,1698649703,43
-0.0802,0.5348,-0.4518,-0.9316,0.7317,-2.4682,-1.8906,-1.8612,9.6857,1.8874,1.1713,2.0108,0.1485,-8.7825,3.1982,2.0876,0.726,1.0162,0.3329,-8.6815,-2.258,2.4375,-0.152551,0,1698649703,44
-0.0755,0.5159,-0.4568,-0.8119,0.5652,-2.5424,-2.0662,-1.563,9.852,1.8065,1.4361,2.0072,0.1404,-8.6768,3.1698,2.132,0.9824,1.3754,0.23,-8.5178,-2.1992,2.4805,-0.09868,0,1698649703,44
-0.0718,0.4689,-0.4606,-0.6837,0.3395,-2.5642,-2.1787,-1.3709,10.0013,1.7626,1.6563,1.8758,0.0949,-8.5474,3.1322,2.1825,1.1108,1.4142,0.1355,-8.3472,-2.1127,2.5532,-0.057087,0,1698649703,45
-0.0684,0.4255,-0.4627,-0.562,0.0867,-2.5641,-2.2388,-1.2514,10.0798,1.6938,1.8094,1.6944,0.0298,-8.3824,3.1022,2.2495,1.1594,1.3428,0.0631,-8.1831,-2.0214,2.6008,-0.026442,0,1698649703,46
-0.0647,0.4296,-0.4632,-0.4497,-0.1386,-2.5215,-2.2344,-1.1839,9.9372,1.5607,1.9172,1.5126,-0.037,-8.2033,3.108,2.2992,1.227,1.3863,-0.0052,-8.0594,-1.9286,2.5945,-0.003534,0,1698649703,47
-0.0608,0.4449,-0.4632,-0.3564,-0.2983,-2.444,-2.1645,-1.0893,9.6101,1.4896,1.9729,1.3305,-0.1042,-8.0243,3.1206,2.3226,1.2863,1.4056,-0.053,-7.9486,-1.8563,2.5594,-0.000275,0,1698649703,47
-0.0567,0.4386,-0.463,-0.2666,-0.4572,-2.6233,-2.0514,-1.0196,9.4023,1.4558,1.9718,1.1286,-0.1871,-7.8588,3.1311,2.345,1.3196,1.4435,-0.0834,-7.8118,-1.8014,2.5353,-0.020778,0,1698649703,48
-0.0524,0.4397,-0.4626,-0.1779,-0.6787,-2.731,-1.8911,-0.987,9.1701,1.4403,1.901,0.8848,-0.2984,-7.714,3.1605,2.3501,1.3522,1.5361,-0.1181,-7.6678,-1.7449,2.5068,-0.061636,0,1698649703,49
-0.0475,0.4755,-0.4624,-0.1265,-0.924,-2.5727,-1.7129,-0.9281,8.9368,1.4597,1.7737,0.6153,-0.4257,-7.602,3.1931,2.3567,1.3972,1.6097,-0.1706,-7.5661,-1.6767,2.4709,-0.146774,0,1698649703,49
-0.0422,0.5103,-0.4621,-0.0813,-1.1648,-2.425,-1.5344,-0.8657,8.8251,1.4828,1.6219,0.36,-0.5484,-7.5166,3.2222,2.3921,1.45,1.6489,-0.242,-7.5126,-1.5938,2.4631,-0.256544,0,1698649703,50
-0.0373,0.4943,-0.4615,-0.0402,-1.305,-2.318,-1.3302,-0.7901,8.76,1.562,1.4392,0.1259,-0.6779,-7.4474,3.2617,2.4348,1.4902,1.6735,-0.3137,-7.483,-1.5259,2.4796,-0.313489,0,1698649703,51
-0.033,0.465,-0.4606,0.0037,-1.4659,-2.2484,-1.1,-0.8021,8.7532,1.5821,1.2275,-0.0585,-0.8168,-7.4035,3.2982,2.4642,1.5274,1.73,-0.3711,-7.4734,-1.4774,2.5182,-0.291325,0,1698649703,51
-0.029,0.458,-0.4586,0.0587,-1.7323,-2.0913,-0.8743,-0.7965,8.6371,1.5308,1.023,-0.1932,-0.9357,-7.3846,3.3169,2.4804,1.5682,1.7995,-0.4217,-7.4811,-1.4361,2.5704,-0.22074,0,1698649703,52
-0.0252,0.4542,-0.4557,0.0963,-1.9725,-1.9454,-0.682,-0.7464,8.5714,1.5461,0.8897,-0.2961,-1.0221,-7.4042,3.3117,2.4911,1.6127,1.8373,-0.472,-7.5323,-1.4149,2.6035,-0.142029,0,1698649703,53
-0.022,0.4433,-0.4533,0.1139,-2.0968,-1.8884,-0.5258,-0.7618,8.6586,1.5884,0.8552,-0.3854,-1.0773,-7.4576,3.2884,2.5194,1.6515,1.8539,-0.5222,-7.6298,-1.4062,2.6102,-0.077564,0,1698649703,53
-0.0193,0.3983,-0.4511,0.1214,-2.1303,-1.8312,-0.3865,-0.8357,8.7237,1.578,0.9025,-0.4573,-1.0946,-7.5205,3.2682,2.5607,1.6586,1.8642,-0.5756,-7.7475,-1.3954,2.5874,-0.024955,0,1698649703,54
-0.0165,0.3486,-0.4489,0.1258,-2.0865,-1.7545,-0.2528,-0.9461,8.8119,1.5237,1.0049,-0.4987,-1.0808,-7.611,3.2506,2.613,1.6378,1.8909,-0.6316,-7.8745,-1.3823,2.5555,0.018331,0,1698649703,55
-0.0139,0.3308,-0.4471,0.1465,-1.9902,-1.6668,-0.1183,-1.0473,8.8532,1.4681,1.1194,-0.5027,-1.0334,-7.727,3.2548,2.6823,1.5943,1.9117,-0.682,-8.018,-1.3726,2.5438,0.037547,0,1698649703,56
-0.0111,0.3281,-0.4457,0.1573,-1.9367,-1.5697,0.0118,-1.0794,8.8569,1.4052,1.2304,-0.459,-0.9583,-7.8433,3.2899,2.7572,1.5307,1.8921,-0.7228,-8.1824,-1.3736,2.5473,0.004972,0,1698649703,56
-0.0077,0.3328,-0.4446,0.1347,-1.8568,-1.5104,0.1367,-1.1385,8.9552,1.3758,1.3295,-0.3798,-0.8701,-7.9746,3.3378,2.8365,1.4617,1.8308,-0.7485,-8.347,-1.3968,2.5681,-0.078038,0,1698649703,57
-0.0035,0.3328,-0.4437,0.1163,-1.7428,-1.4482,0.2618,-1.2101,8.9409,1.3645,1.4064,-0.2741,-0.7803,-8.0973,3.3781,2.9243,1.3953,1.7414,-0.754,-8.4796,-1.4496,2.6178,-0.191521,0,1698649703,58
0.0006,0.3229,-0.4427,0.1176,-1.6381,-1.4076,0.3999,-1.2446,8.921,1.334,1.4738,-0.1493,-0.708,-8.2037,3.3836,2.9925,1.342,1.6473,-0.7514,-8.5554,-1.5155,2.6913,-0.305426,0,1698649703,58
0.0038,0.3095,-0.4413,0.1522,-1.48,-1.4459,0.5361,-1.3094,9.0855,1.289,1.5339,-0.0098,-0.6637,-8.3012,3.3742,3.0335,1.3117,1.5487,-0.7503,-8.5768,-1.5963,2.7725,-0.398541,0,1698649703,59
0.0061,0.2843,-0.4395,0.191,-1.3265,-1.4944,0.6419,-1.329,9.036,1.2508,1.5694,0.1216,-0.6532,-8.3722,3.3634,3.0701,1.2976,1.4805,-0.7596,-8.5747,-1.6909,2.8444,-0.474208,0,1698649703,60
0.0086,0.2639,-0.4375,0.2007,-1.2815,-1.5158,0.6969,-1.2175,8.9986,1.204,1.5954,0.2134,-0.6681,-8.4583,3.3259,3.0961,1.284,1.431,-0.795,-8.5927,-1.7802,2.9072,-0.536567,0,1698649703,60
0.0115,0.2619,-0.4353,0.205,-1.2022,-1.5683,0.7165,-1.149,9.1548,1.1856,1.6462,0.2481,-0.6907,-8.5535,3.2721,3.1313,1.2624,1.3202,-0.8532,-8.6234,-1.8406,2.9755,-0.589241,0,1698649703,61
0.0147,0.2546,-0.4331,0.223,-0.9736,-1.6508,0.7156,-1.2012,9.057,1.2194,1.7359,0.2163,-0.7176,-8.6211,3.2163,3.1872,1.2567,1.1582,-0.9162,-8.6502,-1.8839,3.0501,-0.626138,0,1698649703,62
0.0179,0.2587,-0.4305,0.2504,-0.6724,-1.7252,0.6876,-1.127,8.8094,1.2502,1.8457,0.1421,-0.742,-8.6751,3.1846,3.2427,1.3136,1.0025,-0.9865,-8.6836,-1.9175,3.0999,-0.637924,0,1698649703,63
0.0208,0.2686,-0.428,0.2475,-0.3814,-1.8127,0.636,-0.9163,8.7427,1.2635,1.9556,0.0512,-0.7626,-8.7011,3.1891,3.294,1.4022,0.8459,-1.0488,-8.7146,-1.9307,3.1211,-0.631868,0,1698649703,63
0.0231,0.2626,-0.426,0.2182,-0.1758,-1.8756,0.5644,-0.7344,8.8905,1.2075,2.0325,-0.0705,-0.7863,-8.6967,3.2277,3.3251,1.4454,0.6841,-1.0887,-8.7481,-1.9437,3.1633,-0.623672,0,1698649703,64
0.0258,0.2606,-0.4252,0.1723,-0.0894,-1.8716,0.4577,-0.6068,9.0997,1.0579,2.0173,-0.2323,-0.82,-8.6919,3.2972,3.3396,1.4593,0.5355,-1.1162,-8.7925,-1.969,3.2166,-0.607107,0,1698649703,65
0.0297,0.2892,-0.4253,0.1342,-0.0087,-1.8694,0.3186,-0.5237,9.2213,0.9106,1.9602,-0.4253,-0.8513,-8.72,3.3335,3.3688,1.506,0.3399,-1.1333,-8.873,-2.0005,3.2759,-0.570208,0,1698649703,65
0.035,0.3558,-0.4254,0.1144,0.1145,-1.8957,0.19,-0.5527,9.3227,0.7527,1.9407,-0.6256,-0.8628,-8.7886,3.3361,3.4407,1.5814,0.0849,-1.1458,-8.9849,-2.0345,3.3554,-0.510359,0,1698649703,66
0.0403,0.3904,-0.4252,0.0905,0.4275,-1.9401,0.0987,-0.7252,9.6065,0.4858,1.9663,-0.845,-0.8658,-8.867,3.3538,3.5523,1.6442,-0.2052,-1.152,-9.0639,-2.0831,3.4653,-0.411773,0,1698649703,67
0.0452,0.3982,-0.4246,0.0826,0.6707,-2.0274,0.0286,-0.98,9.9875,0.1947,2.0247,-1.1467,-0.8681,-8.948,3.3639,3.6621,1.699,-0.4979,-1.1569,-9.119,-2.154,3.58,-0.303693,0,1698649703,67
0.0509,0.4561,-0.4226,0.1161,0.6891,-2.1591,-0.0437,-1.2211,10.0768,0.0539,2.0052,-1.4986,-0.8955,-9.0798,3.4067,3.7222,1.7654,-0.7669,-1.1862,-9.2175,-2.2582,3.6758,-0.222927,0,1698649703,68
0.0569,0.5141,-0.4186,0.2127,0.7366,-2.298,-0.1237,-1.2914,10.0471,0.0499,1.9023,-1.8051,-0.9381,-9.2891,3.5055,3.7461,1.8187,-1.0586,-1.2602,-9.357,-2.3945,3.8023,-0.163212,0,1698649703,69
0.0621,0.5386,-0.4119,0.367,0.7497,-2.4443,-0.1953,-1.2912,10.2581,0.1149,1.865,-2.1328,-0.9507,-9.488,3.5247,3.7981,1.8695,-1.3405,-1.3662,-9.4659,-2.5197,3.9361,-0.122,0,1698649703,69
0.0666,0.5586,-0.4012,0.5777,0.782,-2.6116,-0.2807,-1.4161,10.6046,0.1699,1.8445,-2.4222,-0.9434,-9.611,3.5052,3.8655,1.966,-1.5229,-1.4758,-9.5543,-2.6077,4.0158,-0.101813,0,1698649703,70
0.0707,0.5543,-0.3878,0.8179,0.8394,-2.7501,-0.3956,-1.4637,10.7457,0.2819,1.7996,-2.6682,-0.9566,-9.7362,3.5173,3.8858,2.0716,-1.7097,-1.5924,-9.7189,-2.6735,4.0453,-0.101184,0,1698649703,71
0.0744,0.5113,-0.3722,1.0841,0.9787,-2.8704,-0.5215,-1.4082,10.8844,0.5867,1.7895,-3.0136,-0.9804,-9.994,3.6055,3.8441,2.1179,-2.124,-1.7146,-10.0092,-2.7647,4.0441,-0.116599,0,1698649703,72
0.0774,0.4408,-0.3541,1.3445,1.2589,-2.9153,-0.7002,-1.1547,11.1503,1.0653,1.8123,-3.3458,-0.9827,-10.3459,3.7801,3.816,2.1376,-2.5754,-1.8162,-10.371,-2.8857,4.0197,-0.132522,0,1698649703,72
0.0794,0.3586,-0.3356,1.5454,1.5891,-2.8343,-0.9404,-0.6967,11.3182,1.7506,1.8598,-3.5791,-0.9888,-10.6809,3.9238,3.8297,2.1888,-2.7641,-1.8969,-10.7132,-2.9479,3.9823,-0.132202,0,1698649703,73
0.0801,0.2859,-0.3186,1.6085,1.8644,-2.9358,-1.2302,-0.3426,11.8329,2.4419,1.8933,-3.7041,-0.9577,-10.9438,3.9889,3.8395,2.2038,-2.8255,-1.9238,-10.9988,-2.9634,3.929,-0.125246,0,1698649703,74
0.0798,0.2323,-0.3042,1.5334,2.0585,-2.8903,-1.5472,-0.0282,12.424,2.9153,1.8265,-3.6265,-0.9071,-11.1114,3.9886,3.8226,2.1541,-2.8015,-1.8663,-11.1948,-2.9914,3.8124,-0.119376,0,1698649703,74
0.0793,0.1715,-0.2925,1.4224,2.2034,-2.3964,-1.8088,0.2007,12.3911,3.3511,1.6928,-3.4554,-0.9045,-11.2324,3.9086,3.7456,2.1078,-2.6006,-1.7569,-11.3282,-3.0522,3.6214,-0.111989,0,1698649703,75
0.0772,0.045,-0.2838,1.2715,2.4684,-2.0401,-2.001,0.003,12.0558,3.7075,1.5343,-3.2041,-0.8675,-11.3209,3.7696,3.5962,2.0753,-2.3601,-1.6224,-11.4276,-3.1414,3.3744,-0.06841,0,1698649703,76
0.0716,-0.1186,-0.2771,1.1203,2.6445,-1.6645,-2.1766,-0.2767,11.8542,3.7855,1.4096,-2.8887,-0.7859,-11.3104,3.5399,3.3973,2.0662,-2.1393,-1.4771,-11.3583,-3.1925,3.0999,0.055275,0,1698649703,76
0.0619,-0.3549,-0.2706,1.0371,2.4259,-1.1469,-2.3497,-0.061,11.3078,3.8231,1.3221,-2.5006,-0.7507,-11.1008,3.232,3.1768,2.0881,-1.7231,-1.3148,-11.0135,-3.1977,2.824,0.232272,0,1698649703,77
0.0486,-0.6557,-0.2631,1.028,1.9919,-0.8318,-2.4415,0.229,10.9348,3.9346,1.2609,-1.9341,-0.7745,-10.717,2.9274,2.8941,2.1111,-1.0216,-1.124,-10.4914,-3.1906,2.5374,0.398552,0,1698649703,78
0.031,-0.8898,-0.2538,1.052,1.5917,-0.6441,-2.379,0.094,10.9212,3.8905,1.2509,-1.2495,-0.7955,-10.2665,2.6949,2.5326,2.0991,-0.2568,-0.9144,-9.9069,-3.1673,2.2438,0.528803,0,1698649703,78
0.0105,-1.1514,-0.2436,1.0939,1.3874,-0.5257,-2.2112,-0.1296,10.4993,3.771,1.1988,-0.4868,-0.8408,-9.7883,2.5327,2.2384,2.0736,0.4838,-0.7243,-9.2957,-3.1122,1.9342,0.628178,0,1698649704,79
-0.0123,-1.4889,-0.2327,1.1421,1.2577,-0.5035,-1.9803,-0.2739,9.7768,3.7066,1.1481,0.1806,-0.945,-9.2672,2.3564,1.9733,2.0658,1.2312,-0.5869,-8.706,-3.0233,1.6386,0.701829,0,1698649704,80
-0.0379,-1.7849,-0.2211,1.1832,1.0079,-0.4769,-1.714,-0.3851,9.2412,3.5792,1.1258,0.6325,-1.0796,-8.7312,2.1303,1.7091,2.0682,1.851,-0.4998,-8.1758,-2.9206,1.3618,0.754978,0,1698649704,81
-0.0643,-1.9709,-0.2101,1.1918,0.7482,-0.4273,-1.4509,-0.4515,8.9277,3.4293,1.1229,1.1378,-1.2208,-8.2753,1.8886,1.5149,2.0547,2.2343,-0.4534,-7.7346,-2.8331,1.127,0.792983,0,1698649704,81
-0.0909,-2.0693,-0.2001,1.1333,0.5507,-0.4757,-1.1665,-0.5942,8.5357,3.4173,1.1574,1.4279,-1.3152,-7.8985,1.7431,1.383,2.0136,2.4733,-0.4277,-7.3978,-2.7449,0.9673,0.822853,0,1698649704,82
-0.1168,-2.161,-0.1911,1.0489,0.4101,-0.5303,-0.8876,-0.6922,8.3014,3.412,1.2224,1.2707,-1.3629,-7.6117,1.6694,1.3094,1.9995,2.7492,-0.4392,-7.1902,-2.6573,0.866,0.852026,0,1698649704,83
-0.1419,-2.2556,-0.1832,0.994,0.3282,-0.5566,-0.6241,-0.6568,8.1164,3.4002,1.3045,0.9381,-1.3684,-7.4824,1.6225,1.2723,2.0091,2.8801,-0.5146,-7.1329,-2.5896,0.8228,0.880203,0,1698649704,83
-0.1658,-2.2965,-0.1759,0.9313,0.2399,-0.5855,-0.3598,-0.5992,8.1298,3.4257,1.3904,0.4258,-1.308,-7.5082,1.6375,1.3154,1.996,2.6621,-0.6711,-7.195,-2.5399,0.8604,0.904488,0,1698649704,84
-0.1888,-2.2877,-0.1693,0.8662,0.1772,-0.5508,-0.1017,-0.4809,8.3691,3.3552,1.4734,-0.1502,-1.1843,-7.6405,1.7218,1.4427,1.9041,2.1536,-0.8942,-7.3499,-2.5222,0.9639,0.924231,0,1698649704,85
-0.211,-2.3031,-0.1627,0.8454,0.0919,-0.4855,0.1874,-0.2861,8.5346,3.2636,1.5702,-0.6743,-1.0226,-7.8077,1.8118,1.6038,1.7722,1.5073,-1.1245,-7.551,-2.5255,1.1133,0.938794,0,1698649704,85
-0.2323,-2.3543,-0.1556,0.8216,0.0699,-0.4698,0.4785,-0.172,8.7003,3.249,1.6573,-1.055,-0.8366,-7.9928,1.9048,1.7843,1.6978,0.8187,-1.3127,-7.7688,-2.5583,1.2731,0.949825,0,1698649704,86
-0.2526,-2.3517,-0.1483,0.8024,0.11,-0.4806,0.7071,-0.0719,8.9351,3.23,1.6781,-1.1845,-0.6486,-8.1786,2.0275,1.9696,1.6682,0.4286,-1.4453,-8.0022,-2.6159,1.4079,0.959779,0,1698649704,87
-0.2718,-2.2785,-0.141,0.813,0.1539,-0.4489,0.8872,0.0915,9.0288,3.1727,1.6738,-1.0601,-0.4949,-8.3491,2.1404,2.1168,1.5923,0.3456,-1.5049,-8.2306,-2.6921,1.5402,0.96798,0,1698649704,88
-0.2903,-2.2123,-0.1333,0.8041,0.2519,-0.449,1.0629,0.1889,9.0109,3.1146,1.6772,-0.7513,-0.3704,-8.5088,2.1988,2.2231,1.5104,0.3492,-1.4557,-8.4263,-2.7917,1.6274,0.973642,0,1698649704,88
-0.3084,-2.1212,-0.1258,0.7628,0.3553,-0.438,1.2531,0.1927,8.9872,3.0441,1.6672,-0.3615,-0.2848,-8.6524,2.2315,2.272,1.5158,0.5225,-1.334,-8.561,-2.8848,1.6629,0.976817,0,1698649704,89
-0.326,-2.0392,-0.1186,0.7342,0.4722,-0.4116,1.4451,0.1133,8.8375,3.0446,1.6201,-0.1183,-0.2387,-8.7756,2.2666,2.2891,1.4629,0.6928,-1.1849,-8.6427,-2.9362,1.7093,0.978802,0,1698649704,90
-0.3432,-2.0122,-0.1119,0.7098,0.4727,-0.3603,1.6087,-0.0023,8.849,2.9961,1.4805,-0.0155,-0.2268,-8.8492,2.3192,2.3219,1.3238,0.8533,-1.0162,-8.6735,-2.9503,1.7783,0.979509,0,1698649704,90
-0.3599,-1.9493,-0.1059,0.6857,0.3146,-0.2677,1.7503,-0.0999,9.0538,2.8379,1.2587,0.0592,-0.2602,-8.8868,2.3804,2.3814,1.2277,1.2464,-0.846,-8.672,-2.9596,1.8586,0.971097,0,1698649704,91
-0.376,-1.8356,-0.1,0.6688,0.1748,-0.2367,1.8543,-0.1984,9.415,2.7009,1.0123,0.1138,-0.3176,-8.9034,2.3982,2.4574,1.2383,1.8619,-0.6977,-8.6802,-2.9706,1.8975,0.957484,0,1698649704,92
-0.3916,-1.7092,-0.0947,0.6319,0.1496,-0.2433,1.9291,-0.3097,9.9058,2.5169,0.7936,0.198,-0.3699,-8.9185,2.3819,2.5617,1.2968,2.3868,-0.6122,-8.6839,-2.9772,1.8908,0.955358,0,1698649704,92
-0.4064,-1.5808,-0.0902,0.573,0.1591,-0.2458,1.9668,-0.3979,10.3058,2.3302,0.6459,0.3324,-0.4063,-8.93,2.3933,2.6868,1.2894,2.625,-0.5408,-8.6823,-3.0035,1.9353,0.961798,0,1698649704,93
-0.4199,-1.4755,-0.0857,0.5492,0.0736,-0.2095,1.9739,-0.4032,10.3768,2.2993,0.5405,0.5706,-0.4004,-8.903,2.4032,2.803,1.235,2.6881,-0.4145,-8.6877,-3.0416,2.0099,0.966621,0,1698649704,94
-0.4317,-1.4077,-0.0806,0.5327,-0.0602,-0.1701,1.9649,-0.3035,10.2239,2.3418,0.4604,0.8485,-0.3345,-8.8578,2.3737,2.9017,1.1843,2.7695,-0.2756,-8.6806,-3.0335,2.0613,0.967816,0,1698649704,94
-0.4424,-1.343,-0.0757,0.5124,-0.1419,-0.1737,1.9247,-0.1708,10.2527,2.3235,0.4067,1.0917,-0.2313,-8.7869,2.3417,2.9522,1.1296,2.8685,-0.137,-8.6957,-2.998,2.1532,0.9652,0,1698649704,95
-0.4515,-1.2565,-0.0713,0.5021,-0.2489,-0.1449,1.8628,-0.0827,10.327,2.2423,0.3377,1.2873,-0.1308,-8.6911,2.345,2.9493,1.047,2.8602,-0.014,-8.6647,-2.9659,2.2305,0.961901,0,1698649704,96
-0.4593,-1.1598,-0.0667,0.4873,-0.3618,-0.0654,1.8429,-0.0391,10.1623,2.1794,0.2185,1.4214,-0.0603,-8.5855,2.3667,2.9135,0.8977,2.8078,0.1114,-8.5757,-2.9357,2.2468,0.957684,0,1698649704,97
-0.466,-1.0476,-0.0615,0.4806,-0.4588,0.0372,1.8657,0.045,9.901,2.1311,0.1115,1.5051,0.0021,-8.4802,2.35,2.8652,0.7101,2.7628,0.2148,-8.4889,-2.8889,2.2332,0.945167,0,1698649704,97
-0.4707,-0.9076,-0.0567,0.4723,-0.5717,0.162,1.8604,0.1836,9.8509,2.0484,0.0683,1.5241,0.0599,-8.3882,2.3048,2.8442,0.561,2.7627,0.2788,-8.3915,-2.8187,2.2018,0.923286,0,1698649704,98
-0.4734,-0.7495,-0.053,0.4425,-0.6679,0.2624,1.8325,0.2035,9.8641,2.0473,0.0451,1.5218,0.1049,-8.2746,2.273,2.8458,0.4707,2.9212,0.355,-8.2753,-2.7411,2.1963,0.870052,0,1698649704,99
-0.4744,-0.5983,-0.0493,0.4328,-0.7682,0.3643,1.7988,0.1912,9.6015,2.0886,-0.0003,1.5038,0.1261,-8.1535,2.2464,2.8442,0.3964,3.058,0.4364,-8.1382,-2.6736,2.1491,0.789897,0,1698649704,99
-0.4746,-0.4633,-0.0448,0.4697,-0.8342,0.4783,1.7753,0.1998,9.2609,2.0868,-0.1181,1.4055,0.123,-8.0548,2.1924,2.8287,0.313,3.1309,0.491,-7.9978,-2.6354,2.0552,0.716618,0,1698649704,0
-0.4744,-0.3635,-0.0405,0.4581,-0.9289,0.6078,1.7144,0.2656,9.1773,1.99,-0.2728,1.2857,0.09,-7.9111,2.0843,2.7242,0.2483,3.1595,0.5147,-7.8588,-2.6089,1.9251,0.637761,0,1698649704,1
-0.4743,-0.2941,-0.0372,0.4001,-1.0732,0.745,1.5895,0.3485,9.241,1.7995,-0.4406,1.1892,0.0046,-7.8067,1.9692,2.6414,0.1725,3.1442,0.5212,-7.7255,-2.626,1.789,0.555375,0,1698649704,1
-0.4742,-0.2253,-0.0344,0.3585,-1.2577,0.8993,1.4192,0.3845,9.3369,1.6554,-0.6766,1.0963,-0.0651,-7.7759,1.9701,2.6653,-0.0083,2.7897,0.5382,-7.6267,-2.6722,1.7138,0.506008,0,1698649704,2
-0.4741,-0.1694,-0.031,0.3685,-1.4888,1.0592,1.2034,0.493,9.3254,1.5803,-0.9255,1.0344,-0.0792,-7.746,2.0015,2.7023,-0.2015,2.3559,0.5598,-7.5746,-2.7062,1.7182,0.537793,0,1698649704,3
-0.4739,-0.1239,-0.0266,0.4176,-1.5345,1.1221,0.9651,0.6149,9.0617,1.5976,-1.0806,0.9208,-0.0645,-7.7677,1.962,2.707,-0.2997,2.3129,0.5486,-7.5766,-2.739,1.7999,0.62411,0,1698649704,4
-0.4732,-0.0905,-0.0215,0.4624,-1.5129,1.1479,0.7186,0.6166,8.7537,1.6776,-1.2146,0.8708,0.0142,-7.8199,1.9348,2.7283,-0.3955,2.2199,0.5262,-7.6353,-2.7682,1.8839,0.697732,0,1698649704,4
-0.4712,-0.0199,-0.0164,0.5035,-1.6819,1.2361,0.4531,0.5078,8.7312,1.6219,-1.3162,0.9274,0.1383,-7.8561,1.9145,2.813,-0.5236,1.955,0.5131,-7.6906,-2.7973,1.9409,0.755936,0,1698649704,5
-0.467,0.1158,-0.0108,0.5521,-1.8217,1.3677,0.1812,0.4495,8.8645,1.453,-1.3345,0.9783,0.2552,-7.8878,1.8942,2.8927,-0.456,1.7246,0.5267,-7.7407,-2.82,2.0114,0.804693,0,1698649704,6
-0.4613,0.2283,-0.0043,0.6015,-1.73,1.4776,-0.0692,0.4985,8.8387,1.3712,-1.3565,1.0288,0.3716,-7.9471,1.8955,2.9554,-0.4377,1.532,0.5518,-7.819,-2.8231,2.0867,0.843806,0,1698649704,7
-0.4553,0.334,0.0026,0.6205,-1.4934,1.5501,-0.2799,0.6326,8.7457,1.3449,-1.3744,1.0544,0.4884,-8.0364,1.9097,3.0148,-0.6424,1.396,0.5713,-7.9286,-2.8095,2.1484,0.867302,0,1698649704,7
-0.4487,0.4461,0.0096,0.6355,-1.2151,1.6022,-0.458,0.7755,8.6529,1.3504,-1.3849,1.0317,0.5877,-8.1264,1.9174,3.0433,-0.7929,1.1932,0.5941,-8.0189,-2.8,2.1667,0.800634,0,1698649704,8
-0.4418,0.494,0.0167,0.6732,-0.895,1.6555,-0.5947,0.8415,8.488,1.4244,-1.4177,0.9382,0.6801,-8.1982,1.9272,3.0681,-0.9167,0.8483,0.6161,-8.0837,-2.8028,2.1298,0.644569,0,1698649704,9
-0.4346,0.5332,0.0236,0.6832,-0.6199,1.7164,-0.7043,0.8811,8.4329,1.4586,-1.4859,0.8239,0.7732,-8.2625,1.9583,3.0951,-1.0324,0.5675,0.6272,-8.1428,-2.825,2.0915,0.505373,0,1698649704,10
-0.4268,0.5951,0.0304,0.6658,-0.4028,1.8055,-0.7928,0.9059,8.4677,1.463,-1.5788,0.6933,0.8608,-8.3445,1.9811,3.0949,-1.1691,0.2924,0.6299,-8.2149,-2.8788,2.076,0.441874,0,1698649704,10
-0.419,0.6554,0.0372,0.6713,-0.1754,1.9361,-0.83,0.902,8.5446,1.4835,-1.6672,0.5595,0.9476,-8.4544,1.9732,3.0922,-1.3256,-0.0125,0.626,-8.3156,-2.926,2.0791,0.45206,0,1698649704,11
-0.4115,0.6994,0.0438,0.6781,-0.0269,2.1049,-0.8648,0.9315,8.7172,1.5222,-1.7376,0.4649,1.0194,-8.5398,1.9868,3.1245,-1.4787,-0.234,0.617,-8.405,-2.9376,2.1064,0.48096,0,1698649704,12
-0.4036,0.709,0.0503,0.6834,0.097,2.253,-0.897,0.8887,8.9295,1.6107,-1.7795,0.3991,1.081,-8.608,2.0134,3.2095,-1.6359,-0.406,0.6143,-8.4798,-2.9302,2.1677,0.489371,0,1698649704,13
-0.3963,0.6978,0.0567,0.684,0.2273,2.3748,-0.9152,0.7844,9.2041,1.6496,-1.7617,0.3276,1.1349,-8.6821,2.0157,3.3062,-1.7973,-0.5303,0.6249,-8.5419,-2.9285,2.2514,0.472468,0,1698649704,13
-0.3904,0.6564,0.0623,0.6544,0.3038,2.4465,-0.9149,0.6574,9.4953,1.5958,-1.707,0.232,1.169,-8.7447,2.0439,3.3731,-1.943,-0.5995,0.6469,-8.5831,-2.9619,2.3432,0.505053,0,1698649704,14
-0.3871,0.5368,0.0671,0.6139,0.2422,2.5311,-0.8933,0.5814,9.4113,1.5618,-1.668,0.0921,1.1649,-8.8402,2.0748,3.3972,-2.0486,-0.6857,0.6716,-8.6345,-3.0403,2.4291,0.601325,0,1698649704,15
-0.3875,0.3591,0.0717,0.5812,0.1526,2.6778,-0.862,0.6392,9.435,1.331,-1.6461,-0.0703,1.1327,-8.9995,2.0794,3.401,-2.105,-0.7884,0.6814,-8.7403,-3.1581,2.5058,0.689599,0,1698649704,15
-0.3902,0.208,0.0757,0.5513,0.3378,2.7312,-0.7824,0.5938,9.653,0.9854,-1.6309,-0.2202,1.0975,-9.1957,2.0875,3.4237,-2.1224,-0.8861,0.6634,-8.8886,-3.2731,2.575,0.758868,0,1698649704,16
-0.3929,0.1097,0.079,0.5162,0.6316,2.742,-0.6617,0.5914,9.6163,0.7678,-1.6591,-0.3887,1.0616,-9.3824,2.1371,3.5041,-2.1206,-1.037,0.6853,-9.0446,-3.3541,2.6487,0.812386,0,1698649704,17
-0.3944,0.0773,0.0822,0.4891,0.8633,2.8203,-0.5262,0.7448,9.6907,0.5469,-1.7594,-0.6082,1.026,-9.5367,2.2159,3.6436,-2.1047,-1.2027,0.7014,-9.2252,-3.4066,2.7608,0.851104,0,1698649704,18
-0.3944,0.0766,0.0862,0.4903,1.0688,2.9467,-0.3494,0.8142,9.7811,0.4373,-1.9421,-0.9099,0.9993,-9.6779,2.3256,3.8131,-2.1102,-1.4235,0.6832,-9.4515,-3.437,2.9021,0.870493,0,1698649704,18
-0.394,0.0665,0.0911,0.5062,1.225,3.1037,-0.16,0.924,9.9631,0.4594,-2.1846,-1.3326,0.9751,-9.8446,2.4719,3.979,-2.1733,-1.6972,0.6802,-9.7333,-3.4539,3.0065,0.882256,0,1698649704,19
-0.3927,0.1188,0.0953,0.4805,1.4238,3.2342,0.0262,1.024,10.6224,0.4688,-2.4931,-1.8398,0.9589,-10.0336,2.6396,4.1055,-2.3178,-1.9968,0.6821,-10.0517,-3.509,3.0673,0.902077,0,1698649704,20
-0.3883,0.2535,0.0976,0.3822,1.8195,3.1898,0.1973,0.9234,10.5906,1.171,-2.8222,-2.3028,0.9863,-10.2403,2.8794,4.1994,-2.5519,-2.3275,0.7075,-10.385,-3.5697,3.1191,0.923619,0,1698649704,21
-0.38,0.4216,0.0978,0.2715,1.8524,3.1102,0.3336,0.7092,10.1027,2.2277,-3.1358,-2.6795,1.0886,-10.5288,3.1507,4.3036,-2.8155,-2.6695,0.7272,-10.7495,-3.6265,3.1655,0.940643,0,1698649704,21
-0.3676,0.5965,0.0973,0.2072,1.4237,2.952,0.5042,0.2603,10.6415,2.6115,-3.428,-2.9593,1.2268,-10.9032,3.3002,4.4135,-2.9572,-3.0306,0.7109,-11.1446,-3.7011,3.2132,0.953862,0,1698649704,22
-0.3521,0.7436,0.0968,0.1505,1.17,2.7473,0.7927,-0.5878,11.3019,2.8105,-3.5858,-3.1136,1.3649,-11.3212,3.3105,4.4731,-2.9113,-3.4015,0.694,-11.4988,-3.7504,3.2605,0.963936,0,1698649704,23
-0.3366,0.8825,0.0951,0.0598,1.3786,2.5696,1.131,-1.4656,11.3135,3.1427,-3.6258,-3.1022,1.4994,-11.7287,3.2808,4.459,-2.7589,-3.8003,0.7031,-11.7347,-3.8003,3.2357,0.970771,0,1698649704,24
-0.3226,0.9714,0.091,-0.0717,1.7042,2.2978,1.473,-2.0369,11.0681,3.3519,-3.5469,-2.9238,1.5774,-11.9966,3.2376,4.3385,-2.5417,-4.139,0.7451,-11.827,-3.8844,3.1283,0.893043,0,1698649704,24
-0.3107,0.9479,0.0841,-0.2354,1.716,1.9307,1.7753,-2.2669,11.2273,3.5015,-3.3519,-2.6062,1.5758,-12.1061,3.2287,4.0626,-2.2451,-4.2096,0.8032,-11.7533,-3.9345,2.951,0.752477,0,1698649704,25
-0.3024,0.8708,0.0739,-0.4404,1.5462,1.6141,2.0007,-2.3188,11.7836,3.4181,-3.1347,-2.0255,1.5081,-12.0318,3.2512,3.684,-1.8819,-4.0649,0.8552,-11.506,-3.8746,2.7142,0.652818,0,1698649704,26
-0.2971,0.7647,0.0589,-0.6606,1.543,1.4397,2.1459,-2.2341,11.8633,3.2092,-2.9226,-1.2455,1.3695,-11.7138,3.2452,3.3206,-1.4915,-3.6646,0.9058,-11.1153,-3.7107,2.4733,0.607136,0,1698649704,26
-0.2932,0.6683,0.0396,-0.881,0.8882,1.1393,2.1163,-1.4625,11.8076,3.227,-2.6481,0.4852,0.9637,-10.6151,3.1103,2.779,-1.0585,-2.5368,1.0436,-10.0323,-3.1455,1.9118,0.635495,0,1698649704,27
-0.2898,0.6332,0.0191,-1.1127,0.8882,1.1393,2.1163,-1.4625,11.8076,3.227,-2.6481,0.4852,0.9637,-10.6151,3.1103,2.779,-1.0585,-2.5368,1.0436,-10.0323,-3.1455,1.9118,0.676694,0,1698649704,28
-0.2846,0.658,-0.0041,-1.4206,0.5759,1.042,2.027,-1.1905,11.8616,3.1012,-2.5676,1.2893,0.6893,-9.9524,3.0227,2.5701,-1.1212,-2.0029,1.1408,-9.4126,-2.8039,1.5553,0.669939,0,1698649704,29
-0.2754,0.7086,-0.0325,-1.6778,0.3769,1.0627,1.8442,-0.9803,11.1225,3.1379,-2.5171,1.9291,0.4028,-9.1993,2.8725,2.3392,-1.3753,-1.3701,1.2632,-8.8174,-2.4452,1.1802,0.642952,0,1698649704,29
-0.2641,0.7508,-0.0619,-1.8389,-0.1201,1.2757,1.4074,-0.5962,9.4463,3.205,-2.4771,2.6336,-0.0664,-7.8442,2.7484,1.8001,-2.1165,-0.5023,1.5265,-7.9357,-1.7876,0.6091,0.601027,0,1698649704,30
-0.2529,0.7866,-0.0909,-2.0597,-0.2643,1.43,1.2326,-0.3025,8.9063,3.2175,-2.4996,2.6784,-0.208,-7.3822,2.7202,1.5307,-2.5199,-0.4721,1.6633,-7.6972,-1.5308,0.4491,0.549702,0,1698649704,31
-0.2428,0.7875,-0.1194,-2.2471,-0.4258,1.6137,1.0926,-0.1083,8.5916,3.121,-2.552,2.5258,-0.2447,-7.0941,2.6959,1.3384,-2.8682,-0.6395,1.7091,-7.5684,-1.3695,0.3579,0.508172,0,1698649704,32
-0.234,0.7679,-0.1456,-2.347,-0.6065,1.7914,0.9574,-0.0517,8.5551,3.0012,-2.5799,2.1694,-0.182,-7.0016,2.6641,1.2218,-3.1473,-0.9963,1.6756,-7.5317,-1.3015,0.3453,0.475002,0,1698649704,32
-0.2262,0.749,-0.1706,-2.3654,-0.6558,1.874,0.8124,-0.0974,8.7274,2.9156,-2.5352,1.6907,-0.0422,-7.0607,2.5847,1.1898,-3.3265,-1.4021,1.5822,-7.5585,-1.3275,0.3519,0.352135,0,1698649704,33
-0.2198,0.7374,-0.1939,-2.3031,-0.6369,1.904,0.646,-0.275,8.841,2.909,-2.3845,1.1416,0.1474,-7.2309,2.4963,1.2529,-3.3601,-1.7488,1.3802,-7.6448,-1.4733,0.4487,0.114594,0,1698649704,34
-0.2139,0.7235,-0.2158,-2.2225,-0.624,1.9138,0.4614,-0.4627,8.9463,2.9178,-2.1209,0.6299,0.3722,-7.4767,2.4113,1.3829,-3.295,-2.4842,1.1005,-7.8396,-1.7012,0.6411,-0.1245,0,1698649704,35
-0.2082,0.6767,-0.2365,-2.1422,-0.6011,1.8992,0.2618,-0.7224,9.0709,2.869,-1.7525,0.1881,0.6312,-7.7611,2.2913,1.5627,-3.2393,-3.4611,0.845,-8.0722,-1.949,0.9037,-0.319633,0,1698649704,35
-0.2024,0.6706,-0.2556,-2.1018,-0.5391,1.8623,0.0087,-1.0106,9.243,2.786,-1.3164,-0.0877,0.9108,-8.0452,2.24,1.7414,-3.1611,-3.9795,0.6712,-8.2504,-2.1672,1.1879,-0.471504,0,1698649704,36
-0.1955,0.7054,-0.275,-2.0577,-0.3997,1.762,-0.2662,-1.3067,9.377,2.7268,-0.9367,-0.1204,1.1449,-8.324,2.32,1.8754,-2.9981,-3.905,0.5601,-8.4164,-2.3516,1.4085,-0.589288,0,1698649704,37
-0.1875,0.7109,-0.2947,-1.9575,-0.2761,1.6066,-0.5147,-1.5845,9.4385,2.6311,-0.6495,0.1021,1.3098,-8.5759,2.4625,1.9672,-2.8246,-3.5753,0.4865,-8.5763,-2.4569,1.5685,-0.679651,0,1698649704,38
-0.1789,0.7159,-0.3129,-1.8685,-0.1656,1.422,-0.7103,-1.7634,9.3621,2.5651,-0.4878,0.5332,1.3884,-8.7831,2.6488,2.0518,-2.7274,-3.2962,0.4456,-8.7189,-2.4732,1.6732,-0.745257,0,1698649704,38
-0.17,0.7545,-0.3304,-1.7976,-0.0074,1.2061,-0.852,-1.8716,9.1739,2.575,-0.4857,1.0146,1.3609,-8.9565,2.8497,2.1157,-2.651,-2.9115,0.4317,-8.8575,-2.4453,1.7331,-0.795006,0,1698649704,39
-0.1611,0.8163,-0.3473,-1.7068,0.2144,0.9447,-0.9535,-1.933,9.0111,2.5875,-0.5873,1.4056,1.2449,-9.0624,3.0124,2.1405,-2.5243,-2.4857,0.4431,-8.9775,-2.3754,1.7556,-0.837617,0,1698649704,40
-0.152,0.8593,-0.3644,-1.6027,0.5085,0.6326,-1.029,-2.0111,8.8806,2.6823,-0.719,1.6334,1.084,-9.0831,3.104,2.1642,-2.4123,-2.2113,0.4579,-9.0509,-2.2934,1.7929,-0.87254,0,1698649704,40
-0.1432,0.8564,-0.38,-1.5456,0.7199,0.3587,-1.097,-1.998,8.7387,2.7828,-0.8357,1.7524,0.9225,-9.033,3.1595,2.1808,-2.3373,-2.0748,0.4694,-9.0627,-2.2388,1.9309,-0.9,0,1698649704,41
-0.1352,0.826,-0.3935,-1.5287,0.7376,0.1646,-1.1736,-1.7954,8.796,2.6958,-0.9085,1.8534,0.762,-8.959,3.2137,2.1916,-2.2312,-1.9108,0.5243,-9.0174,-2.2033,2.1137,-0.920516,0,1698649704,42
-0.1279,0.7796,-0.4058,-1.4717,0.7231,-0.0202,-1.2604,-1.5712,9.1364,2.5215,-0.9191,1.9003,0.6349,-8.8828,3.2398,2.2133,-2.0594,-1.6659,0.6301,-8.961,-2.1936,2.253,-0.904403,0,1698649704,43
-0.1214,0.742,-0.417,-1.4061,0.7937,-0.243,-1.3543,-1.4946,9.3859,2.4011,-0.8838,1.8839,0.5216,-8.8156,3.2216,2.247,-1.845,-1.4108,0.7011,-8.8718,-2.2099,2.3503,-0.860899,0,1698649704,43
-0.1151,0.7211,-0.4277,-1.3465,0.8017,-0.4433,-1.4655,-1.4306,9.4749,2.3402,-0.7993,1.8285,0.4012,-8.7621,3.1872,2.3242,-1.652,-1.1437,0.7094,-8.7125,-2.2389,2.425,-0.826745,0,1698649704,44
-0.1085,0.706,-0.4379,-1.2815,0.7065,-0.6057,-1.615,-1.3587,9.6979,2.229,-0.7081,1.8571,0.3001,-8.6708,3.1377,2.4222,-1.4978,-0.8672,0.6835,-8.5454,-2.2659,2.4943,-0.796889,0,1698649704,45
-0.1018,0.7075,-0.4477,-1.1998,0.549,-0.7208,-1.7805,-1.3106,9.8701,2.0919,-0.6006,2.0097,0.2164,-8.5361,3.0426,2.4838,-1.3917,-0.6022,0.6481,-8.3809,-2.2583,2.5436,-0.76646,0,1698649704,46
-0.0954,0.6965,-0.4561,-1.0948,0.4301,-0.8119,-1.9227,-1.2243,9.9453,2.0351,-0.4038,2.1095,0.2042,-8.3993,2.8851,2.5197,-1.3238,-0.3631,0.6,-8.2082,-2.2238,2.5877,-0.734897,0,1698649704,46
-0.0897,0.6753,-0.4631,-0.981,0.3003,-0.8818,-2.0332,-1.1159,9.9733,2.0043,-0.1844,2.1716,0.2468,-8.2367,2.8012,2.5536,-1.2489,-0.1245,0.5312,-8.0506,-2.1791,2.6258,-0.702911,0,1698649704,47
-0.0843,0.6512,-0.4686,-0.8528,0.138,-0.9233,-2.1002,-1.0153,9.7948,1.9833,0.0081,2.1969,0.2687,-8.0935,2.7727,2.552,-1.1618,0.1094,0.4488,-7.9185,-2.1241,2.6465,-0.668345,0,1698649704,48
-0.0788,0.6218,-0.4725,-0.7447,0.0189,-0.9581,-2.1276,-0.9418,9.5567,1.9623,0.1824,2.1432,0.2705,-8.0051,2.7409,2.5082,-1.0941,0.2211,0.3515,-7.8226,-2.0706,2.6618,-0.632959,0,1698649704,49
-0.0733,0.5775,-0.4756,-0.6442,-0.118,-0.9859,-2.1003,-0.9087,9.4384,1.9224,0.3407,1.9984,0.2701,-7.9307,2.7453,2.4942,-1.0389,0.2006,0.2564,-7.7487,-2.023,2.6662,-0.60451,0,1698649704,49
-0.0681,0.5541,-0.4779,-0.5355,-0.2721,-1.0153,-2.0219,-0.9448,9.2593,1.8932,0.4705,1.7522,0.2297,-7.8546,2.7632,2.4869,-0.9509,0.2213,0.1859,-7.6757,-1.994,2.6643,-0.584789,0,1698649704,50
-0.0626,0.5684,-0.4788,-0.4338,-0.4693,-1.0074,-1.8963,-0.984,9.0181,1.8359,0.5126,1.5209,0.1098,-7.7892,2.755,2.4459,-0.8289,0.3438,0.1346,-7.6001,-1.9728,2.6654,-0.56838,0,1698649705,51
-0.0575,0.5663,-0.4785,-0.3527,-0.654,-0.974,-1.7144,-0.992,8.9433,1.7437,0.4711,1.365,-0.0209,-7.7401,2.7793,2.4242,-0.7,0.4757,0.0921,-7.5314,-1.9547,2.6618,-0.550661,0,1698649705,51
-0.0527,0.5568,-0.4784,-0.272,-0.8111,-0.9455,-1.5032,-0.9838,8.8208,1.7021,0.4022,1.2133,-0.1505,-7.679,2.8436,2.4073,-0.5522,0.6233,0.0455,-7.4669,-1.9316,2.6296,-0.530186,0,1698649705,52
-0.0472,0.5725,-0.4783,-0.1975,-0.9817,-0.8943,-1.2744,-0.9571,8.6078,1.6594,0.3214,1.0614,-0.2819,-7.6069,2.8879,2.3509,-0.3905,0.7848,-0.0111,-7.4112,-1.8925,2.5776,-0.515295,0,1698649705,53
-0.0409,0.5976,-0.478,-0.1457,-1.2045,-0.7924,-1.0175,-0.9973,8.4556,1.6887,0.24,0.8863,-0.4239,-7.5685,2.9213,2.2833,-0.2317,0.9017,-0.0747,-7.3922,-1.852,2.5387,-0.522721,0,1698649705,54
-0.0347,0.6233,-0.4772,-0.0865,-1.4636,-0.7158,-0.7804,-0.8933,8.5294,1.6952,0.1392,0.6864,-0.5812,-7.5681,2.9429,2.2442,-0.0751,1.0036,-0.1471,-7.4095,-1.8134,2.5097,-0.544363,0,1698649705,54
-0.029,0.6332,-0.4754,-0.0241,-1.6343,-0.6555,-0.557,-0.6511,8.6634,1.6101,0.0208,0.5124,-0.728,-7.5662,2.9696,2.2347,0.0721,1.1236,-0.2204,-7.4465,-1.7649,2.5018,-0.560054,0,1698649705,55
-0.0234,0.6342,-0.4725,0.0469,-1.7174,-0.5958,-0.3043,-0.5613,8.5491,1.5975,-0.0796,0.3721,-0.86,-7.568,2.9882,2.2649,0.2103,1.2569,-0.2833,-7.5038,-1.7184,2.5136,-0.568731,0,1698649705,56
-0.0181,0.6106,-0.4682,0.1394,-1.6992,-0.5657,-0.0441,-0.5432,8.3569,1.6332,-0.1849,0.3211,-0.9488,-7.5939,3.0254,2.3331,0.3577,1.4295,-0.3398,-7.5831,-1.6898,2.5233,-0.572988,0,1698649705,57
-0.0126,0.5783,-0.4626,0.2196,-1.5642,-0.5482,0.2075,-0.5991,8.2151,1.6331,-0.2061,0.2235,-1.005,-7.663,3.0088,2.371,0.4995,1.5755,-0.4059,-7.6719,-1.6873,2.5468,-0.580294,0,1698649705,57
-0.007,0.5896,-0.4575,0.2574,-1.4243,-0.5219,0.4378,-0.7123,8.1451,1.6025,-0.1434,0.0395,-1.0445,-7.7594,2.9537,2.3954,0.5942,1.5806,-0.4853,-7.7645,-1.7055,2.5961,-0.60287,0,1698649705,58
-0.0014,0.6029,-0.4537,0.2739,-1.3071,-0.4886,0.6457,-0.8376,8.1714,1.6111,-0.0418,-0.1265,-1.0691,-7.8532,2.9064,2.4419,0.6627,1.4926,-0.5691,-7.8582,-1.7238,2.6446,-0.640549,0,1698649705,59
0.0043,0.5972,-0.4504,0.2944,-1.217,-0.4875,0.8472,-1.0221,8.2519,1.5895,0.1146,-0.2554,-1.0635,-7.9317,2.8696,2.5072,0.7679,1.4072,-0.6573,-7.953,-1.7525,2.6702,-0.674683,0,1698649705,60
0.0097,0.5882,-0.4468,0.3274,-1.1035,-0.5421,1.0412,-1.1419,8.302,1.5152,0.2804,-0.3274,-1.0277,-8.0178,2.8934,2.5907,0.9076,1.3169,-0.7564,-8.0699,-1.7957,2.6946,-0.691422,0,1698649705,60
0.0152,0.5857,-0.4428,0.3397,-0.9412,-0.6509,1.226,-1.2039,8.2293,1.5126,0.468,-0.3765,-0.9692,-8.1499,2.9034,2.688,0.9956,1.154,-0.8471,-8.2227,-1.8284,2.7449,-0.692211,0,1698649705,61
0.0208,0.5684,-0.4391,0.3146,-0.7819,-0.7414,1.378,-1.2353,8.3603,1.4849,0.6853,-0.3814,-0.876,-8.2899,2.9143,2.7929,1.0145,0.9251,-0.9098,-8.3735,-1.8605,2.805,-0.683351,0,1698649705,62
0.0258,0.5356,-0.4363,0.2952,-0.5892,-0.8432,1.4552,-1.1832,8.6689,1.4225,0.9086,-0.3622,-0.7687,-8.4003,2.934,2.895,1.0275,0.7201,-0.9534,-8.4924,-1.9065,2.8787,-0.67124,0,1698649705,63
0.0305,0.5043,-0.4336,0.3004,-0.4122,-0.9726,1.4768,-1.1032,8.8092,1.4285,1.1145,-0.3472,-0.6828,-8.5106,2.9504,2.9553,1.0615,0.5566,-0.9932,-8.6028,-1.9604,2.9721,-0.661012,0,1698649705,63
0.0353,0.4964,-0.4305,0.3276,-0.239,-1.1208,1.4493,-0.9552,8.8823,1.4744,1.3059,-0.4021,-0.6228,-8.6532,2.9642,3.0115,1.1058,0.3632,-1.0404,-8.7299,-2.0304,3.0684,-0.661012,0,1698649705,64
0.039,0.4723,-0.4269,0.3408,-0.0456,-1.2913,1.3811,-0.8147,9.0038,1.5033,1.285,-0.5445,-0.601,-8.8244,3.0035,3.1094,1.135,0.1183,-1.0881,-8.8484,-2.105,3.1755,-0.669085,0,1698649705,65
0.0414,0.4028,-0.4238,0.3127,0.1029,-1.4374,1.2607,-0.733,9.2794,1.4045,1.29,-0.7061,-0.6258,-8.9921,3.1001,3.2004,1.1458,-0.0898,-1.12,-8.9439,-2.1857,3.2697,-0.66272,0,1698649705,65
0.0434,0.3378,-0.4228,0.2269,0.1399,-1.5483,1.0531,-0.6522,9.626,1.197,1.4576,-0.8547,-0.7073,-9.1162,3.2221,3.2781,1.1628,-0.1935,-1.1354,-9.0291,-2.2677,3.354,-0.641581,0,1698649705,66
0.0459,0.3104,-0.4233,0.1444,0.1285,-1.6847,0.7784,-0.6525,9.9487,0.9492,1.5161,-1.0358,-0.8098,-9.2257,3.2776,3.3686,1.1955,-0.2817,-1.1457,-9.1217,-2.335,3.4425,-0.622806,0,1698649705,67
0.0496,0.3325,-0.4235,0.1107,0.2075,-1.8341,0.497,-0.757,10.1766,0.6547,1.4994,-1.1687,-0.8749,-9.3332,3.2729,3.4784,1.2508,-0.4354,-1.1614,-9.2326,-2.4058,3.5557,-0.600617,0,1698649705,68
0.054,0.3764,-0.4234,0.0896,0.3889,-1.9953,0.2519,-0.8849,10.1871,0.3401,1.5094,-1.2839,-0.9783,-9.4517,3.2599,3.606,1.3346,-0.6605,-1.1897,-9.3314,-2.4897,3.6938,-0.55737,0,1698649705,68
0.0583,0.3926,-0.4234,0.0516,0.6322,-2.2015,0.0624,-1.0738,10.1656,0.1169,1.5675,-1.572,-1.1277,-9.6103,3.2113,3.693,1.4636,-0.987,-1.2347,-9.4412,-2.6152,3.8214,-0.480222,0,1698649705,69
0.0624,0.4015,-0.4229,0.0424,0.925,-2.4443,-0.124,-1.3654,10.3013,0.0768,1.5734,-2.0479,-1.2556,-9.8466,3.1762,3.7542,1.6431,-1.4357,-1.3251,-9.604,-2.8137,3.9528,-0.386523,0,1698649705,70
0.0668,0.4247,-0.421,0.1037,0.8193,-2.638,-0.3437,-1.3735,10.3633,0.1174,1.5797,-2.5949,-1.3609,-10.1009,3.1203,3.871,1.8421,-1.9496,-1.4754,-9.7511,-3.0299,4.1019,-0.327544,0,1698649705,71
0.0713,0.4353,-0.4157,0.2629,0.6111,-2.9121,-0.5605,-1.0995,10.7611,0.2256,1.657,-3.0086,-1.4538,-10.2642,3.05,4.0087,2.0615,-2.336,-1.662,-9.8378,-3.1882,4.2437,-0.342029,0,1698649705,71
0.0747,0.4053,-0.405,0.5528,0.9283,-3.2596,-0.6632,-1.051,11.0984,0.477,1.7639,-3.2857,-1.543,-10.4232,3.053,4.0754,2.3026,-2.5568,-1.8479,-9.9577,-3.2976,4.3586,-0.36166,0,1698649705,72
0.0767,0.3439,-0.3898,0.8763,1.2769,-3.4374,-0.6756,-1.0887,10.9825,0.8138,1.8257,-3.558,-1.6311,-10.699,3.1789,4.0603,2.5095,-2.7914,-2.0289,-10.2292,-3.4015,4.4281,-0.323691,0,1698649705,73
0.0771,0.2616,-0.3708,1.1727,1.5213,-3.4921,-0.733,-0.9931,11.1924,1.2693,1.8856,-3.9169,-1.679,-11.0637,3.3429,4.0542,2.6046,-3.1126,-2.2163,-10.6221,-3.4969,4.4431,-0.272121,0,1698649705,74
0.077,0.1977,-0.3495,1.4367,1.896,-3.4365,-0.8586,-0.7824,11.6106,1.8545,1.9551,-4.2451,-1.6889,-11.4143,3.4778,4.0799,2.5898,-3.4762,-2.3653,-10.9893,-3.5515,4.4026,-0.236698,0,1698649705,74
0.0769,0.1716,-0.3291,1.5885,2.3677,-3.2187,-1.0771,-0.4596,12.0894,2.4887,1.9682,-4.3739,-1.6873,-11.6385,3.5864,4.0727,2.5553,-3.6495,-2.4308,-11.2849,-3.5337,4.3051,-0.213633,0,1698649705,75
0.0763,0.113,-0.3119,1.6214,2.6327,-2.8339,-1.4556,-0.1298,12.6607,3.0093,1.9127,-4.5584,-1.646,-11.6777,3.6878,3.9753,2.5354,-3.4501,-2.3811,-11.4741,-3.4521,4.1302,-0.190514,0,1698649705,76
0.0737,-0.0273,-0.2976,1.5549,2.5744,-2.3415,-1.8493,0.0055,13.5249,3.2745,1.8228,-4.5695,-1.5542,-11.6176,3.7034,3.8118,2.4951,-3.0771,-2.2436,-11.5599,-3.3507,3.8637,-0.163219,0,1698649705,76
0.067,-0.2095,-0.286,1.3921,2.7021,-1.9438,-2.115,-0.0716,13.9593,3.4959,1.7947,-4.1802,-1.4284,-11.4888,3.6435,3.5827,2.4025,-2.7456,-2.0286,-11.5127,-3.2639,3.5062,-0.097662,0,1698649705,77
0.0556,-0.4241,-0.2775,1.2306,2.8379,-1.6621,-2.3112,-0.3886,13.4839,3.7454,1.8641,-3.7125,-1.2566,-11.1963,3.4558,3.3002,2.2786,-2.3321,-1.7287,-11.2264,-3.1995,3.0855,0.035889,0,1698649705,78
0.0398,-0.7361,-0.2714,1.0671,2.7005,-1.445,-2.4525,-0.7811,12.8303,3.9457,2.0049,-3.1856,-1.037,-10.7072,3.0967,2.9854,2.1662,-1.7417,-1.379,-10.714,-3.1582,2.6754,0.201661,0,1698649705,79
0.0207,-1.0398,-0.2676,0.888,2.5461,-1.3565,-2.5282,-1.122,12.2208,3.9857,2.2054,-2.6519,-0.8315,-10.1277,2.7226,2.6257,2.0772,-1.0761,-1.0008,-10.0787,-3.1551,2.3143,0.359318,0,1698649705,79
-0.002,-1.3367,-0.2643,0.7673,2.0674,-1.3108,-2.5751,-1.0952,11.8615,3.73,2.3475,-1.9946,-0.7324,-9.5313,2.442,2.2797,2.0498,-0.357,-0.6193,-9.3805,-3.1887,1.9999,0.491003,0,1698649705,80
-0.0275,-1.7151,-0.2586,0.75,1.5191,-1.3766,-2.5271,-0.8389,11.5661,3.5822,2.3668,-1.2692,-0.7424,-8.9967,2.1943,1.934,2.1154,0.3438,-0.2872,-8.7246,-3.2343,1.7146,0.597806,0,1698649705,81
-0.0553,-2.063,-0.2497,0.8247,1.3072,-1.669,-2.3109,-1.0279,10.9679,3.6083,2.3323,-0.7518,-0.7663,-8.6093,1.9442,1.6329,2.2448,0.8676,-0.0881,-8.2186,-3.2534,1.4849,0.684889,0,1698649705,82
-0.0853,-2.33,-0.2385,0.9079,1.094,-1.9284,-2.0125,-1.3544,10.164,3.559,2.3063,-0.4445,-0.7874,-8.3317,1.7751,1.4421,2.3598,1.1356,-0.028,-7.833,-3.2151,1.3199,0.753029,0,1698649705,82
-0.1172,-2.5584,-0.2261,1.012,0.7708,-2.0575,-1.7425,-1.4513,9.6345,3.4457,2.3416,-0.32,-0.8303,-8.1243,1.6659,1.3304,2.4406,1.2628,-0.0469,-7.5574,-3.1119,1.2139,0.805963,0,1698649705,83
-0.1483,-2.7179,-0.213,1.1102,0.5623,-2.2302,-1.4909,-1.4605,9.2727,3.4041,2.4414,-0.3767,-0.8499,-7.9854,1.6212,1.2852,2.5144,1.3259,-0.1213,-7.4325,-2.9528,1.2021,0.847313,0,1698649705,84
-0.176,-2.731,-0.2008,1.124,0.4362,-2.3848,-1.2155,-1.2627,8.9603,3.4082,2.5649,-0.5034,-0.8064,-7.9152,1.665,1.2882,2.5624,1.2453,-0.2412,-7.4336,-2.7817,1.2646,0.879211,0,1698649705,85
-0.2014,-2.6382,-0.1895,1.1382,0.4643,-2.481,-0.906,-0.9594,8.8506,3.4501,2.6498,-0.5507,-0.7223,-7.9569,1.8028,1.3547,2.5996,1.0753,-0.4068,-7.5358,-2.6207,1.3634,0.904614,0,1698649705,85
-0.2259,-2.6226,-0.179,1.1663,0.5288,-2.4612,-0.5583,-0.5873,8.6771,3.5821,2.7455,-0.6087,-0.622,-8.0697,1.9675,1.485,2.6524,0.9169,-0.5985,-7.7167,-2.4788,1.4799,0.925259,0,1698649705,86
-0.2489,-2.648,-0.1692,1.1567,0.5013,-2.2898,-0.1741,-0.0068,8.7765,3.6859,2.8634,-0.7092,-0.4742,-8.1544,2.093,1.6375,2.696,0.7836,-0.7594,-7.9094,-2.386,1.5646,0.941773,0,1698649705,87
-0.2714,-2.5875,-0.1595,1.0999,0.5652,-2.0945,0.2488,0.4702,8.8474,3.7573,2.9174,-0.6969,-0.293,-8.1897,2.2411,1.7765,2.6881,0.6801,-0.84,-8.0951,-2.3134,1.6477,0.954734,0,1698649705,88
-0.2939,-2.4609,-0.1505,1.0121,0.6089,-1.8192,0.6531,0.8062,8.8411,3.7218,2.9227,-0.5289,-0.1181,-8.2089,2.4092,1.8609,2.6598,0.6508,-0.8344,-8.2612,-2.2722,1.7195,0.964833,0,1698649705,88
-0.3147,-2.3146,-0.1423,0.9491,0.6351,-1.4699,1.0336,1.0429,8.9315,3.6726,2.8851,-0.3225,0.0313,-8.243,2.5391,1.8958,2.6003,0.7618,-0.767,-8.3836,-2.272,1.7614,0.97268,0,1698649705,89
-0.3343,-2.2248,-0.1344,0.9026,0.7007,-1.0861,1.3343,1.235,8.9134,3.6817,2.7715,-0.1997,0.1304,-8.3015,2.622,1.9095,2.4518,0.9256,-0.6576,-8.4704,-2.2697,1.8329,0.978776,0,1698649705,90
-0.3527,-2.1426,-0.1271,0.8681,0.7217,-0.6167,1.5627,1.2704,8.9962,3.5789,2.5691,-0.129,0.1732,-8.4104,2.699,1.987,2.2573,1.0997,-0.5385,-8.5362,-2.2669,1.9074,0.983511,0,1698649705,90
-0.3698,-2.0054,-0.1203,0.8418,0.6827,-0.12,1.7291,1.3422,9.1999,3.3344,2.2789,-0.0349,0.1238,-8.5118,2.7708,2.1167,2.0635,1.3338,-0.4307,-8.5678,-2.2786,1.9314,0.987182,0,1698649705,91
-0.386,-1.857,-0.114,0.8038,0.7998,0.2683,1.8395,1.4229,9.3312,3.2511,1.9607,0.0476,0.0445,-8.5956,2.7961,2.2369,1.8747,1.5847,-0.3401,-8.5835,-2.3077,1.8989,0.990002,0,1698649705,92
-0.4008,-1.7283,-0.1084,0.774,1.0067,0.3237,1.95,1.6106,9.3712,3.3262,1.6598,0.2633,-0.0349,-8.662,2.8069,2.3495,1.6454,1.8306,-0.4819,-8.6032,-2.3506,1.8537,0.992179,0,1698649705,93
-0.4144,-1.6459,-0.103,0.7433,1.0404,0.4229,2.0606,1.4942,9.2801,3.3279,1.34,0.4036,-0.1196,-8.6992,2.7763,2.4798,1.3352,2.0268,-0.5946,-8.6054,-2.4062,1.8653,0.993806,0,1698649705,93
-0.4282,-1.5564,-0.0972,0.6971,0.8689,0.8256,2.1541,1.0914,9.374,3.0986,1.0277,0.291,-0.1667,-8.7409,2.7296,2.6389,0.9962,2.1544,-0.4589,-8.5782,-2.4795,1.9281,0.99496,0,1698649705,94
-0.4418,-1.4429,-0.0925,0.6409,0.6743,1.1562,2.1995,0.8822,9.7307,2.7213,0.7553,0.2248,-0.1896,-8.753,2.6906,2.7634,0.7219,2.3652,-0.3459,-8.5229,-2.5669,1.9953,0.993308,0,1698649705,95
-0.4536,-1.3289,-0.0888,0.6037,0.4584,1.4079,2.2177,0.6133,9.9245,2.4171,0.4772,0.1931,-0.204,-8.7244,2.6432,2.8595,0.571,2.8221,-0.2759,-8.4375,-2.6626,2.0792,0.930672,0,1698649705,96
-0.4642,-1.2043,-0.0848,0.5909,0.1671,1.6358,2.2148,0.4595,10.0463,2.1342,0.165,0.1905,-0.2229,-8.6776,2.6002,2.9248,0.4555,3.1531,-0.2344,-8.37,-2.7565,2.1573,0.882928,0,1698649705,96
-0.473,-1.0979,-0.0801,0.5726,-0.0386,1.7693,2.1955,0.2511,10.0197,1.9953,-0.1398,0.2499,-0.2409,-8.6389,2.5399,2.9541,0.284,3.0361,-0.1978,-8.3441,-2.8238,2.2086,0.907061,1,1698649705,97
-0.4799,-0.9974,-0.0753,0.5579,-0.2317,1.8577,2.1567,0.0317,10.0502,1.8542,-0.3722,0.2952,-0.249,-8.6214,2.4459,2.9723,0.1541,2.9529,-0.1737,-8.3117,-2.8784,2.2583,0.927536,1,1698649705,98
-0.4849,-0.8592,-0.0708,0.5499,-0.4004,1.8837,2.0847,-0.1034,10.171,1.6772,-0.5775,0.3295,-0.2459,-8.593,2.3717,3.0106,0.1172,3.1183,-0.1652,-8.2758,-2.9065,2.3159,0.943708,1,1698649705,99
-0.4876,-0.6836,-0.0657,0.5529,-0.5161,1.8434,2.022,-0.2813,9.9789,1.6534,-0.7889,0.3673,-0.2324,-8.531,2.319,3.0753,0.0851,3.2111,-0.1612,-8.2375,-2.8996,2.3478,0.956274,1,1698649705,99
-0.4883,-0.5298,-0.0601,0.552,-0.6316,1.8105,1.9785,-0.4221,9.6591,1.6469,-0.9668,0.446,-0.2151,-8.441,2.2744,3.1189,0.0193,3.168,-0.1504,-8.1706,-2.8412,2.344,0.966037,1,1698649705,0
-0.4882,-0.3911,-0.0547,0.5373,-0.7971,1.7678,1.9182,-0.4295,9.6491,1.5614,-1.0972,0.5966,-0.211,-8.3073,2.2472,3.1428,-0.0454,3.1022,-0.1326,-8.0692,-2.7647,2.3565,0.97362,1,1698649705,1
-0.488,-0.2764,-0.0496,0.5447,-1.0517,1.7116,1.833,-0.3953,9.7822,1.4611,-1.231,0.8133,-0.2377,-8.1302,2.2112,3.1459,-0.1273,2.9864,-0.089,-7.9191,-2.7217,2.3815,0.97951,1,1698649705,1
-0.4878,-0.207,-0.0446,0.5698,-1.2751,1.6314,1.7285,-0.3616,9.73,1.4532,-1.3979,1.0635,-0.3018,-7.952,2.1698,3.1237,-0.2045,2.8836,-0.0236,-7.7399,-2.6978,2.3908,0.984084,1,1698649705,2
-0.4877,-0.1495,-0.04,0.5591,-1.3813,1.5017,1.5681,-0.287,9.4605,1.4735,-1.5327,1.2279,-0.3687,-7.8024,2.0858,3.0675,-0.2005,2.9793,0.0136,-7.5786,-2.7023,2.3768,0.987636,1,1698649705,3
-0.487,-0.0877,-0.0365,0.5105,-1.3965,1.2451,1.3072,-0.1558,9.6694,1.3543,-1.651,1.2645,-0.4267,-7.6937,1.9917,3.0107,-0.1958,2.9642,0.0527,-7.457,-2.7485,2.3355,0.990393,1,1698649705,3
-0.4843,-0.0118,-0.0336,0.4554,-1.3673,0.9511,1.0073,-0.1686,9.6127,1.289,-1.7872,1.2588,-0.4725,-7.6025,1.9205,2.9749,-0.25,2.7087,0.1163,-7.3573,-2.8147,2.2893,0.992486,0,1698649705,4
-0.4796,0.1138,-0.0308,0.4262,-1.5509,0.9631,0.6918,-0.0617,8.7541,1.3767,-1.8597,1.2228,-0.4987,-7.4997,1.7863,2.9572,-0.31,2.5639,0.1606,-7.2846,-2.8545,2.2384,0.993988,0,1698649705,5
-0.473,0.2859,-0.027,0.4298,-1.7736,0.9775,0.3112,0.2717,8.2726,1.5047,-1.8283,1.1992,-0.468,-7.4722,1.6658,2.9221,-0.424,2.3654,0.1976,-7.3123,-2.8641,2.1831,0.994641,0,1698649705,5
-0.4645,0.446,-0.0223,0.4508,-1.6901,0.8337,-0.0526,0.2891,7.9374,1.6885,-1.7281,1.2592,-0.3657,-7.5497,1.6219,2.8711,-0.5917,1.9539,0.2408,-7.4239,-2.8844,2.1375,0.972783,0,1698649705,6
-0.4551,0.5826,-0.0173,0.4755,-1.5111,0.7943,-0.3522,0.1569,7.7973,1.7696,-1.5071,1.2777,-0.2232,-7.6749,1.5383,2.8523,-0.728,1.6155,0.2769,-7.5563,-2.8886,2.1451,0.867857,0,1698649705,7
-0.4463,0.6793,-0.012,0.5067,-1.2816,0.7561,-0.6165,0.1088,7.9652,1.7965,-1.2152,1.5358,-0.0469,-7.8204,1.4932,2.8825,-0.8049,1.4268,0.3177,-7.6803,-2.8799,2.1951,0.720217,0,1698649705,7
-0.4388,0.6872,-0.0058,0.5657,-1.014,0.6489,-0.8004,-0.0042,8.0763,1.8126,-0.9357,1.8104,0.1412,-7.968,1.5173,2.9275,-0.8245,1.2563,0.3605,-7.7835,-2.8908,2.2401,0.559534,0,1698649705,8
-0.4332,0.6364,0.0007,0.5862,-0.8623,0.5298,-0.9194,-0.0912,8.285,1.7524,-0.6683,1.8047,0.3308,-8.0915,1.4908,2.9599,-0.8151,1.1009,0.398,-7.8567,-2.9038,2.2969,0.390147,0,1698649705,9
-0.4289,0.5743,0.0065,0.56,-0.7488,0.3794,-1.0144,-0.1061,8.5476,1.6971,-0.4215,1.8624,0.5172,-8.1523,1.475,3.0146,-0.8163,0.9785,0.4391,-7.8914,-2.9529,2.3515,0.256663,0,1698649705,9
-0.4259,0.4988,0.0117,0.547,-0.6401,0.1688,-1.0788,-0.1493,8.7128,1.6736,-0.2058,1.9525,0.6611,-8.1787,1.5127,3.0369,-0.8138,0.886,0.4812,-7.9101,-3.0247,2.3955,0.145583,0,1698649705,10
-0.4251,0.4009,0.0168,0.5557,-0.6009,0.0026,-1.1212,-0.1226,8.8235,1.6108,0.0153,1.8946,0.738,-8.2872,1.6182,2.9966,-0.7564,0.8406,0.5045,-7.9297,-3.0901,2.4244,0.053011,0,1698649705,11
-0.4255,0.3228,0.0215,0.547,-0.613,-0.0633,-1.155,0.0277,8.937,1.5435,0.1897,1.7354,0.7526,-8.4351,1.7621,2.9679,-0.648,0.8087,0.4971,-7.9636,-3.1363,2.4369,-0.02129,0,1698649705,11
-0.4255,0.2657,0.0257,0.52,-0.6216,-0.0788,-1.194,0.2511,9.0802,1.5281,0.274,1.599,0.7374,-8.5087,1.813,2.9708,-0.5408,0.7839,0.47,-8.0113,-3.1418,2.4669,-0.079497,0,1698649705,12
-0.4254,0.2014,0.0304,0.4958,-0.6266,-0.0584,-1.2157,0.477,9.1877,1.5272,0.3207,1.4598,0.7129,-8.5601,1.8193,3.0051,-0.4617,0.8158,0.4396,-8.0791,-3.0993,2.5332,-0.123452,0,1698649705,13
-0.4252,0.1588,0.0357,0.4791,-0.685,0.1142,-1.2028,0.6816,9.0665,1.4834,0.2982,1.2819,0.6547,-8.6462,1.898,3.1205,-0.4123,0.8951,0.4143,-8.17,-3.0307,2.6099,-0.151869,0,1698649705,13
-0.4251,0.1426,0.0404,0.4621,-0.7585,0.2244,-1.2098,0.8095,9.1076,1.5223,0.2117,1.1223,0.5958,-8.7259,2.0477,3.2721,-0.3892,0.9533,0.398,-8.2785,-2.9694,2.6895,-0.163096,0,1698649705,14
-0.425,0.1227,0.0437,0.4372,-0.7789,0.2444,-1.2468,0.8105,9.4725,1.5489,0.0797,0.9651,0.5407,-8.7732,2.1796,3.3917,-0.3832,0.9636,0.3973,-8.3949,-2.937,2.7911,-0.163165,0,1698649705,15
-0.425,0.0852,0.0459,0.4023,-0.8186,0.4355,-1.2508,1.0465,9.6923,1.3677,-0.0697,0.763,0.4825,-8.8083,2.2335,3.4782,-0.3896,0.9426,0.4036,-8.515,-2.9391,2.8925,-0.15415,0,1698649705,15
-0.4251,0.0547,0.0481,0.3622,-0.8196,0.6606,-1.2019,1.182,9.5007,1.2956,-0.1985,0.588,0.4476,-8.8793,2.2395,3.5636,-0.4065,0.8981,0.3974,-8.6419,-2.9737,2.9702,-0.129287,0,1698649705,16
-0.4252,0.0406,0.0506,0.3438,-0.7974,0.8406,-1.1239,1.048,9.3029,1.354,-0.2755,0.4377,0.423,-8.9923,2.2161,3.6481,-0.4359,0.8372,0.3772,-8.7443,-3.0352,3.0079,-0.070928,0,1698649705,17
-0.4253,0.031,0.0532,0.3309,-0.7751,1.023,-1.0165,0.9583,9.3214,1.3438,-0.3081,0.3038,0.3971,-9.1027,2.1822,3.7295,-0.4834,0.7788,0.3488,-8.8072,-3.0999,3.0021,0.03636,0,1698649705,17
-0.4253,0.0339,0.0553,0.3053,-0.6512,1.2218,-0.8895,0.9095,9.4178,1.2552,-0.3419,0.1726,0.3736,-9.1909,2.1617,3.8082,-0.5509,0.7343,0.3131,-8.851,-3.1496,2.9848,0.17862,0,1698649705,18
-0.4253,0.0317,0.0563,0.2554,-0.5234,1.4546,-0.7662,0.9499,9.6509,1.0642,-0.4321,0.0357,0.3425,-9.2329,2.1779,3.8849,-0.6384,0.6818,0.2785,-8.8938,-3.17,2.9836,0.323331,0,1698649705,19
-0.4253,0.019,0.0568,0.2006,-0.4668,1.7172,-0.6347,1.0466,9.8566,0.814,-0.6265,-0.0919,0.286,-9.2405,2.2516,3.9717,-0.7395,0.5916,0.2542,-8.9525,-3.1543,3.0038,0.440052,0,1698649705,19
-0.425,0.0168,0.0573,0.1597,-0.5489,2.0132,-0.495,1.1737,10.0286,0.5689,-0.8866,-0.2583,0.2319,-9.2452,2.3589,4.0658,-0.8198,0.4577,0.2447,-9.0392,-3.098,3.0198,0.515784,0,1698649705,20
-0.4243,0.0435,0.0581,0.1364,-0.634,2.2738,-0.3464,1.2318,10.2464,0.3871,-1.191,-0.5043,0.1924,-9.2711,2.4706,4.132,-0.8983,0.2642,0.2501,-9.1656,-3.053,3.056,0.557104,0,1698649705,21
-0.4218,0.1343,0.0588,0.1119,-0.5962,2.4328,-0.2166,1.2024,10.3825,0.3311,-1.5287,-0.8173,0.1771,-9.3415,2.6062,4.1823,-1.0138,0.0235,0.2705,-9.3336,-3.0567,3.1089,0.603662,0,1698649705,21
-0.4155,0.3192,0.059,0.0851,-0.6179,2.5503,-0.1293,1.0083,10.5176,0.3632,-1.8507,-1.1217,0.1907,-9.428,2.7284,4.2436,-1.1641,-0.2248,0.3042,-9.5119,-3.08,3.1396,0.671957,0,1698649706,22
-0.4042,0.5987,0.059,0.083,-0.6356,2.6458,-0.0658,0.6696,10.5682,0.4713,-2.1196,-1.3505,0.2721,-9.5168,2.7586,4.2917,-1.3294,-0.4756,0.3594,-9.6469,-3.1036,3.1635,0.738223,0,1698649706,23
-0.3885,0.859,0.059,0.0741,-0.5846,2.697,-0.0327,0.3335,10.4523,0.6652,-2.3105,-1.5104,0.3975,-9.6464,2.7399,4.2917,-1.4876,-0.7539,0.4338,-9.791,-3.1706,3.1778,0.788158,0,1698649706,23
-0.3701,1.0464,0.0589,0.0553,-0.4555,2.6669,-0.0146,-0.0154,10.5386,0.9256,-2.4836,-1.6558,0.4923,-9.881,2.747,4.2027,-1.6479,-1.1149,0.4831,-10.0345,-3.3334,3.1672,0.752474,0,1698649706,24
-0.3511,1.1945,0.0588,0.0267,-0.2104,2.5549,0.0676,-0.4754,10.7653,1.2393,-2.6154,-1.8608,0.5736,-10.2709,2.7821,4.0474,-1.7785,-1.5445,0.4779,-10.3738,-3.5634,3.1352,0.654208,0,1698649706,25
-0.3332,1.2552,0.0585,-0.0015,0.0567,2.3153,0.2473,-1.1431,11.1906,1.5567,-2.5738,-2.1274,0.6607,-10.7454,2.7688,3.9044,-1.7802,-2.0537,0.4286,-10.7229,-3.7675,3.0387,0.576861,0,1698649706,25
-0.3183,1.226,0.0582,-0.0023,0.1329,2.0278,0.4347,-1.679,11.5499,2.0304,-2.3241,-2.2902,0.7717,-11.1537,2.782,3.8195,-1.6468,-2.623,0.3836,-10.9489,-3.8617,2.9213,0.515051,0,1698649706,26
-0.3087,1.1017,0.0565,-0.0461,0.0805,1.6844,0.7131,-2.068,11.7753,2.2899,-2.0408,-2.1396,0.8981,-11.4051,2.8291,3.7632,-1.4768,-3.0329,0.3486,-11.0277,-3.8335,2.8562,0.465207,0,1698649706,26
-0.3054,0.8912,0.0523,-0.1735,0.0142,1.2054,1.076,-2.2846,12.1628,2.4003,-1.7457,-1.6972,1.0072,-11.5138,2.8294,3.6382,-1.3038,-3.1961,0.3129,-11.0044,-3.7565,2.768,0.426504,0,1698649706,27
-0.3056,0.6929,0.0446,-0.392,0.0616,0.6476,1.3962,-2.2484,12.2315,2.7407,-1.4151,-1.1311,1.0469,-11.4969,2.8357,3.4257,-1.0885,-3.04,0.3031,-10.8701,-3.669,2.5934,0.398956,0,1698649706,28
-0.3065,0.5284,0.0326,-0.658,0.17,0.1488,1.4105,-1.9741,12.1128,2.9555,-1.0611,-0.5269,0.9967,-11.3149,2.8535,3.1024,-0.8318,-2.6043,0.2767,-10.6225,-3.5159,2.3394,0.385992,0,1698649706,28
-0.3072,0.4077,0.0171,-0.8706,0.1101,-0.2225,1.3424,-1.4572,11.9912,3.0995,-0.7419,0.0983,0.8623,-10.9792,2.8796,2.7654,-0.6281,-2.2028,0.2358,-10.2949,-3.2974,2.033,0.394752,0,1698649706,29
-0.3069,0.3406,-0.0011,-1.1127,-0.0966,-0.447,1.4591,-0.9333,11.7353,3.2171,-0.5271,0.6879,0.6386,-10.5439,2.8988,2.4885,-0.5483,-1.8023,0.227,-9.9151,-3.0416,1.7363,0.41839,0,1698649706,30
-0.3058,0.2978,-0.0215,-1.3578,-0.3091,-0.5115,1.5182,-0.4229,11.3863,3.3163,-0.3808,1.1714,0.3285,-10.0457,2.93,2.1935,-0.5511,-1.1725,0.2304,-9.5052,-2.7643,1.4686,0.449481,0,1698649706,30
-0.3038,0.2898,-0.044,-1.5466,-0.4239,-0.501,1.513,-0.0534,10.8036,3.4993,-0.3311,1.5896,-0.0214,-9.5454,2.9441,1.9486,-0.6334,-0.495,0.2381,-9.1178,-2.4992,1.2246,0.49073,0,1698649706,31
-0.2999,0.3092,-0.0685,-1.7221,-0.6255,-0.3719,1.451,0.1579,10.0856,3.7128,-0.3776,1.9553,-0.3358,-9.0548,2.9302,1.7725,-0.8123,-0.083,0.274,-8.8041,-2.254,0.9873,0.511798,0,1698649706,32
-0.2943,0.3464,-0.0954,-1.8717,-0.8222,-0.165,1.3448,0.3397,9.6273,3.8489,-0.4411,2.1482,-0.5886,-8.6399,2.8814,1.6253,-1.005,0.2694,0.2822,-8.5549,-2.0329,0.7404,0.466314,0,1698649706,32
-0.2886,0.3898,-0.1216,-1.9957,-0.9562,0.1149,1.2394,0.4418,9.3029,3.8085,-0.4631,2.1974,-0.7602,-8.3448,2.8122,1.5273,-1.1947,0.5466,0.2366,-8.3602,-1.8712,0.5518,0.346098,0,1698649706,33
-0.2838,0.4396,-0.1467,-2.1182,-1.0629,0.4005,1.1465,0.4001,9.2137,3.6736,-0.4768,2.1317,-0.8415,-8.1534,2.7805,1.4528,-1.3847,0.4738,0.1714,-8.2325,-1.8077,0.4284,0.207159,0,1698649706,34
-0.2789,0.496,-0.1725,-2.1794,-1.0937,0.636,1.0206,0.3207,9.2863,3.552,-0.5428,1.8923,-0.8799,-8.0639,2.7261,1.396,-1.5501,0.2963,0.073,-8.1822,-1.8278,0.36,0.106987,0,1698649706,34
-0.2735,0.5098,-0.1972,-2.1719,-1.0461,0.8402,0.881,0.1451,9.3328,3.4154,-0.6776,1.5496,-0.8672,-8.0686,2.6152,1.3906,-1.6931,0.1021,-0.0417,-8.2033,-1.9146,0.4087,0.052352,0,1698649706,35
-0.2682,0.4873,-0.2208,-2.1969,-0.9597,0.9699,0.7539,-0.1327,9.2997,3.3793,-0.8181,1.2212,-0.7917,-8.1423,2.4994,1.4313,-1.8025,-0.1918,-0.142,-8.2488,-2.0592,0.5623,0.030297,0,1698649706,36
-0.2633,0.4734,-0.2432,-2.2094,-0.8866,1.039,0.6185,-0.4639,9.1669,3.3458,-0.9272,0.938,-0.6887,-8.2792,2.3707,1.4843,-1.8278,-0.3792,-0.2488,-8.2967,-2.2562,0.7259,0.030136,0,1698649706,36
-0.2577,0.4878,-0.2643,-2.2079,-0.8767,1.0945,0.4358,-0.7743,9.2029,3.1772,-0.9711,0.718,-0.5763,-8.4642,2.2375,1.5568,-1.7733,-0.4975,-0.3667,-8.3655,-2.4948,0.8808,0.000375,0,1698649706,37
-0.2511,0.5341,-0.2843,-2.2123,-0.8708,1.1281,0.2291,-1.0357,9.2566,2.9914,-0.9233,0.6383,-0.4532,-8.635,2.1438,1.6497,-1.7378,-0.7616,-0.4421,-8.4654,-2.7117,1.022,-0.114997,0,1698649706,38
-0.2434,0.5922,-0.3038,-2.1811,-0.8141,1.0878,0.0097,-1.2589,9.3046,2.8193,-0.7661,0.7196,-0.3253,-8.7916,2.095,1.7429,-1.7264,-0.9632,-0.4683,-8.5727,-2.8587,1.1322,-0.280968,0,1698649706,38
-0.2341,0.6524,-0.323,-2.0932,-0.7148,0.9892,-0.2126,-1.3723,9.1918,2.7163,-0.5724,0.9361,-0.2131,-8.9265,2.1159,1.8301,-1.698,-0.9358,-0.4698,-8.6763,-2.9208,1.2114,-0.435563,0,1698649706,39
-0.2249,0.729,-0.3392,-1.9803,-0.5549,0.8197,-0.41,-1.4796,8.9542,2.6959,-0.433,1.2083,-0.1294,-9.0156,2.2032,1.879,-1.6682,-0.9017,-0.4506,-8.7926,-2.9105,1.2678,-0.558754,0,1698649706,40
-0.2161,0.8064,-0.3537,-1.8539,-0.3626,0.567,-0.5813,-1.6234,8.8271,2.6718,-0.3622,1.4307,-0.066,-9.0649,2.3181,1.8909,-1.6357,-0.9733,-0.4161,-8.9094,-2.8517,1.3188,-0.655754,0,1698649706,40
-0.207,0.8423,-0.3677,-1.7697,-0.1237,0.2745,-0.7228,-1.7426,8.8783,2.64,-0.3464,1.5711,-0.229,-9.0771,2.4354,1.8931,-1.5857,-1.0399,-0.3586,-8.9983,-2.7804,1.379,-0.731225,0,1698649706,41
-0.198,0.8475,-0.3809,-1.7149,0.0908,-0.0243,-0.8617,-1.8063,8.8214,2.6896,-0.3385,1.6154,-0.348,-9.0489,2.5348,1.8978,-1.5325,-1.0882,-0.2688,-9.0571,-2.7347,1.4691,-0.782409,0,1698649706,42
-0.189,0.8756,-0.3937,-1.6502,0.1705,-0.3041,-0.99,-1.7996,8.8568,2.6792,-0.3058,1.6081,-0.2051,-8.9983,2.6109,1.8991,-1.4749,-1.1769,-0.1479,-9.0833,-2.6983,1.5706,-0.788626,0,1698649706,42
-0.1804,0.9176,-0.4054,-1.6039,0.2546,-0.5939,-1.1059,-1.8102,9.1195,2.6262,-0.226,1.6211,-0.0695,-8.95,2.6556,1.8966,-1.3952,-1.2509,-0.0122,-9.0574,-2.669,1.6628,-0.762886,0,1698649706,43
-0.1724,0.9042,-0.4163,-1.5485,0.3812,-0.8795,-1.213,-1.7864,9.1885,2.5953,-0.123,1.6278,0.0435,-8.9039,2.6687,1.9112,-1.3129,-1.3391,0.1153,-8.9815,-2.6553,1.7825,-0.748354,0,1698649706,44
-0.1652,0.8361,-0.4265,-1.4367,0.4532,-1.1448,-1.3191,-1.6823,9.3368,2.4987,-0.0328,1.6058,0.1126,-8.8595,2.6492,1.9263,-1.1918,-1.3453,0.2118,-8.873,-2.6359,1.8884,-0.751451,0,1698649706,44
-0.1584,0.7652,-0.436,-1.3176,0.5747,-1.4173,-1.4144,-1.6189,9.4723,2.4489,0.0568,1.5938,0.1594,-8.8123,2.6324,1.9281,-1.0058,-1.1457,0.2638,-8.7605,-2.6071,1.9289,-0.757395,0,1698649706,45
-0.1521,0.7201,-0.4449,-1.2455,0.6017,-1.6102,-1.496,-1.4873,9.511,2.4252,0.1631,1.5751,0.1838,-8.7544,2.644,1.9183,-0.817,-0.9471,0.2845,-8.653,-2.5744,1.9745,-0.757136,0,1698649706,46
-0.1459,0.7005,-0.4529,-1.1772,0.5341,-1.72,-1.585,-1.2894,9.5677,2.4268,0.2678,1.5154,0.1678,-8.7146,2.6554,1.9214,-0.6541,-0.8253,0.2802,-8.5473,-2.5431,2.0425,-0.746853,0,1698649706,46
-0.1396,0.6943,-0.4604,-1.0963,0.5157,-1.83,-1.6745,-1.1611,9.6439,2.454,0.3543,1.4494,0.1444,-8.6748,2.6575,1.9518,-0.5225,-0.7205,0.2572,-8.4468,-2.5067,2.1034,-0.720584,0,1698649706,47
-0.1333,0.6792,-0.4668,-0.9922,0.4588,-1.8754,-1.7501,-1.04,9.6638,2.4521,0.435,1.3896,0.1227,-8.6193,2.6397,1.9702,-0.4075,-0.5955,0.2232,-8.3562,-2.4729,2.1643,-0.686143,0,1698649706,48
-0.1275,0.6525,-0.4718,-0.8747,0.3558,-1.8246,-1.7926,-0.8885,9.5878,2.4359,0.5285,1.3125,0.0906,-8.5564,2.621,1.9921,-0.2756,-0.3988,0.1729,-8.2716,-2.4437,2.218,-0.664375,0,1698649706,48
-0.1219,0.6478,-0.4762,-0.7764,0.2757,-1.7655,-1.8094,-0.7572,9.5234,2.4199,0.6453,1.2297,0.0554,-8.4782,2.6151,2.0234,-0.1458,-0.1906,0.1142,-8.1861,-2.4151,2.2365,-0.652264,0,1698649706,49
-0.1161,0.6638,-0.48,-0.6743,0.2153,-1.7111,-1.7917,-0.682,9.3059,2.4334,0.7421,1.19,-0.0078,-8.3856,2.6268,2.0487,-0.0646,-0.0161,0.0653,-8.1128,-2.3843,2.2343,-0.634524,0,1698649706,50
-0.1106,0.6447,-0.4827,-0.5612,0.0916,-1.6084,-1.7346,-0.631,9.1433,2.3762,0.8172,1.189,-0.0841,-8.2849,2.6228,2.0745,-0.0195,0.1697,0.0323,-8.0369,-2.3468,2.235,-0.611794,0,1698649706,50
-0.1055,0.6102,-0.4837,-0.4503,-0.0436,-1.4842,-1.6365,-0.5949,8.9946,2.3348,0.8918,1.1567,-0.1595,-8.1986,2.5959,2.0708,0.0352,0.3515,0.0119,-7.9696,-2.3155,2.2326,-0.589081,0,1698649706,51
-0.1001,0.6041,-0.4837,-0.3461,-0.1495,-1.364,-1.5126,-0.5909,8.8822,2.317,0.9267,1.0728,-0.2377,-8.1297,2.5883,2.0505,0.1365,0.4765,-0.0066,-7.9366,-2.2787,2.2021,-0.569422,0,1698649706,52
-0.0946,0.5859,-0.4836,-0.2689,-0.2641,-1.2117,-1.3601,-0.5792,8.888,2.2479,0.8907,0.9719,-0.3036,-8.0679,2.6461,2.05,0.2688,0.5566,-0.0294,-7.9021,-2.2137,2.1525,-0.550029,0,1698649706,52
-0.0894,0.5699,-0.4835,-0.2233,-0.4239,-1.033,-1.1914,-0.5242,8.8954,2.1846,0.8117,0.8108,-0.3658,-7.994,2.7062,2.0547,0.3691,0.6529,-0.0446,-7.8545,-2.1445,2.1308,-0.518133,0,1698649706,53
-0.0843,0.5741,-0.4834,-0.1879,-0.5906,-0.8618,-1.0271,-0.4636,8.9034,2.1242,0.683,0.6132,-0.4372,-7.9242,2.7392,2.0596,0.412,0.8052,-0.0513,-7.825,-2.082,2.1314,-0.486803,0,1698649706,54
-0.0788,0.5539,-0.4833,-0.1484,-0.7414,-0.7075,-0.8671,-0.4467,8.856,2.0823,0.508,0.4411,-0.5045,-7.8867,2.7291,2.0689,0.43,0.99,-0.0616,-7.8251,-2.0136,2.1264,-0.477442,0,1698649706,54
-0.0732,0.5347,-0.4831,-0.0951,-0.8875,-0.5527,-0.7079,-0.4597,8.8022,2.0691,0.3312,0.3559,-0.5398,-7.8524,2.718,2.1089,0.4516,1.16,-0.0696,-7.8359,-1.9391,2.1285,-0.481264,0,1698649706,55
-0.0676,0.5561,-0.4828,-0.0314,-1.0061,-0.4384,-0.5442,-0.3958,8.5989,2.0478,0.1938,0.3622,-0.5638,-7.7876,2.773,2.1878,0.471,1.2945,-0.0699,-7.8303,-1.8767,2.1509,-0.483557,0,1698649706,56
-0.0615,0.5735,-0.4825,0.0109,-1.1255,-0.3778,-0.4077,-0.4309,8.4472,2.0129,0.1204,0.3858,-0.5944,-7.7287,2.801,2.2502,0.4767,1.3914,-0.0658,-7.8076,-1.8395,2.1857,-0.478025,0,1698649706,56
-0.0555,0.5606,-0.4818,0.049,-1.1747,-0.3043,-0.294,-0.5913,8.4926,1.9705,0.0872,0.405,-0.6138,-7.7115,2.8118,2.2714,0.4709,1.4606,-0.0661,-7.7891,-1.8274,2.2173,-0.458258,0,1698649706,57
-0.0496,0.5472,-0.4812,0.0635,-1.1747,-0.2063,-0.1818,-0.6597,8.5146,1.8737,0.0819,0.3765,-0.617,-7.7289,2.8042,2.275,0.4595,1.5051,-0.0799,-7.7862,-1.8373,2.2373,-0.420808,0,1698649706,58
-0.0434,0.5636,-0.4809,0.0479,-1.1601,-0.1396,-0.0776,-0.7281,8.4624,1.8103,0.0999,0.3236,-0.611,-7.7705,2.7761,2.3027,0.4405,1.508,-0.1111,-7.8113,-1.8631,2.2731,-0.383613,0,1698649706,58
-0.0371,0.5998,-0.4808,0.025,-1.0593,-0.1363,0.0229,-0.8684,8.3868,1.8075,0.1565,0.2664,-0.5918,-7.8325,2.7467,2.3621,0.4138,1.4703,-0.1583,-7.8689,-1.8936,2.3135,-0.376216,0,1698649706,59
-0.0311,0.6249,-0.4804,0.0221,-0.9981,-0.1517,0.1257,-1.0262,8.337,1.7535,0.2576,0.1963,-0.5633,-7.914,2.7312,2.426,0.3913,1.3992,-0.2121,-7.9477,-1.921,2.3649,-0.404531,0,1698649706,60
-0.0253,0.621,-0.4793,0.0595,-0.9744,-0.19,0.2345,-1.1494,8.3501,1.6351,0.3736,0.1249,-0.53,-8.0115,2.7367,2.4948,0.3858,1.3065,-0.2683,-8.0393,-1.9535,2.4129,-0.450579,0,1698649706,60
-0.0195,0.5945,-0.4771,0.1122,-0.8443,-0.2939,0.3404,-1.2648,8.3167,1.5352,0.4944,0.0686,-0.4923,-8.1381,2.7424,2.5565,0.3986,1.2089,-0.3375,-8.1524,-1.9908,2.4271,-0.505947,0,1698649706,61
-0.0137,0.5835,-0.4738,0.1694,-0.682,-0.4215,0.4285,-1.2751,8.3092,1.4404,0.6367,0.012,-0.4579,-8.2837,2.7521,2.6114,0.417,1.0965,-0.4118,-8.2689,-2.0395,2.4345,-0.557692,0,1698649706,62
-0.0078,0.5871,-0.4695,0.2371,-0.5081,-0.582,0.5098,-1.2357,8.3577,1.3764,0.7993,-0.0634,-0.4405,-8.4297,2.7575,2.6602,0.4288,0.9674,-0.4814,-8.3829,-2.1031,2.4431,-0.592387,0,1698649706,62
-0.0016,0.6063,-0.4636,0.3134,-0.345,-0.7603,0.5917,-1.2859,8.4645,1.342,0.9784,-0.1484,-0.4381,-8.5802,2.7513,2.7101,0.4371,0.816,-0.5516,-8.5123,-2.1749,2.4878,-0.616592,0,1698649706,63
0.0043,0.5955,-0.4571,0.3649,-0.2106,-0.9269,0.6672,-1.3324,8.8135,1.1966,1.1678,-0.223,-0.4541,-8.7348,2.7676,2.7598,0.4623,0.6294,-0.6181,-8.6284,-2.2531,2.5794,-0.639579,0,1698649706,64
0.0091,0.5302,-0.4514,0.4231,-0.0201,-1.1433,0.7071,-1.4032,9.1644,1.0705,1.3363,-0.3099,-0.4819,-8.8674,2.7832,2.8003,0.5133,0.4274,-0.6748,-8.7123,-2.3475,2.6647,-0.669654,0,1698649706,64
0.0133,0.4858,-0.4464,0.4618,0.364,-1.5343,0.6702,-1.5224,9.3985,1.0227,1.5389,-0.5357,-0.57,-9.0757,2.8128,2.9079,0.6742,0.0388,-0.7843,-8.8779,-2.5181,2.8343,-0.707555,0,1698649706,65
0.0177,0.4695,-0.4417,0.4298,0.5353,-1.69,0.5918,-1.4564,9.5191,1.0234,1.5742,-0.6508,-0.6341,-9.1576,2.8565,2.9723,0.7598,-0.1447,-0.8338,-8.9433,-2.5825,2.9149,-0.74086,0,1698649706,66
0.0216,0.4533,-0.4382,0.3819,0.572,-1.7658,0.4841,-1.3143,9.7604,0.956,1.5777,-0.81,-0.701,-9.2178,2.8803,3.0271,0.851,-0.2659,-0.8722,-8.9934,-2.6349,2.9812,-0.761427,0,1698649706,66
0.0248,0.4332,-0.4366,0.3275,0.5425,-1.8503,0.3143,-1.1853,10.0199,0.8289,1.5174,-0.9482,-0.7861,-9.2469,2.9253,3.0726,0.9602,-0.3899,-0.9055,-9.0341,-2.6831,3.0548,-0.752912,0,1698649706,67
0.0285,0.438,-0.4362,0.2507,0.5512,-1.9908,0.116,-1.1842,10.1263,0.7154,1.4263,-1.0641,-0.865,-9.2922,2.9634,3.1628,1.0867,-0.5885,-0.9424,-9.0865,-2.7315,3.1423,-0.713439,0,1698649706,68
0.0333,0.4795,-0.4362,0.1789,0.6176,-2.1017,-0.0568,-1.2196,10.0917,0.576,1.3844,-1.2265,-0.9187,-9.3712,2.9259,3.2988,1.2344,-0.7947,-0.9847,-9.1634,-2.7765,3.2564,-0.662837,0,1698649706,68
0.0387,0.5083,-0.436,0.1374,0.716,-2.2151,-0.1927,-1.2822,10.1567,0.418,1.3963,-1.541,-0.9663,-9.4978,2.822,3.4512,1.3969,-1.0256,-1.0371,-9.2436,-2.8378,3.4111,-0.603868,0,1698649706,69
0.0439,0.5067,-0.435,0.139,0.8274,-2.3365,-0.2889,-1.4231,10.2061,0.3687,1.3986,-1.9335,-1.0058,-9.6453,2.7621,3.5581,1.5734,-1.3192,-1.1052,-9.368,-2.9382,3.5548,-0.535786,0,1698649706,70
0.0494,0.508,-0.4317,0.2149,0.983,-2.4605,-0.3755,-1.498,10.2673,0.3893,1.38,-2.3041,-1.0246,-9.8037,2.7639,3.6323,1.7189,-1.8037,-1.1955,-9.5597,-3.0654,3.6797,-0.463919,0,1698649706,70
0.0558,0.5337,-0.4245,0.3761,1.235,-2.5927,-0.4735,-1.4931,10.4754,0.4023,1.421,-2.5475,-0.9745,-10.0011,2.7568,3.7464,1.8056,-2.3564,-1.3031,-9.726,-3.1554,3.8313,-0.39201,0,1698649706,71
0.0625,0.5463,-0.4134,0.6054,1.4325,-2.6783,-0.5701,-1.4427,10.7193,0.4509,1.538,-2.6915,-0.9048,-10.157,2.7909,3.8507,1.9138,-2.629,-1.3816,-9.833,-3.197,3.9509,-0.328402,0,1698649706,72
0.0689,0.5328,-0.3995,0.8771,1.6396,-2.732,-0.6365,-1.3994,10.9788,0.579,1.6101,-2.8604,-0.8601,-10.2771,2.9002,3.8834,2.0831,-2.6958,-1.417,-9.996,-3.2236,3.9812,-0.277052,0,1698649706,72
0.0745,0.5117,-0.3835,1.1016,1.9436,-2.7566,-0.6856,-1.2949,11.0944,0.8137,1.5826,-3.0717,-0.8066,-10.4241,3.0682,3.8422,2.2402,-2.8167,-1.4369,-10.2699,-3.2628,3.9663,-0.232737,0,1698649706,73
0.0787,0.4615,-0.3653,1.2778,2.1525,-2.694,-0.7578,-0.9355,11.2496,1.1789,1.5264,-3.3662,-0.7727,-10.616,3.266,3.8362,2.2982,-3.0291,-1.4574,-10.574,-3.3234,3.9403,-0.195943,0,1698649706,74
0.0809,0.3797,-0.3462,1.4411,2.2448,-2.5525,-0.8744,-0.3987,11.8742,1.5747,1.4554,-3.6546,-0.7055,-10.8653,3.5007,3.8932,2.2717,-3.2085,-1.4512,-10.8341,-3.382,3.9092,-0.168997,0,1698649706,74
0.0816,0.2864,-0.3281,1.5555,2.3506,-2.3326,-0.8107,0.041,12.4449,2.0225,1.3781,-3.7781,-0.5587,-11.0635,3.6373,3.8811,2.2435,-3.2243,-1.3748,-11.0315,-3.4042,3.8483,-0.149575,0,1698649706,75
0.0815,0.2082,-0.3124,1.5853,2.4857,-2.034,-0.8039,0.2524,12.6017,2.5139,1.2703,-3.6499,-0.3859,-11.1608,3.6212,3.7857,2.2233,-2.9988,-1.2208,-11.1592,-3.3932,3.7356,-0.088272,0,1698649706,75
0.0811,0.1365,-0.2993,1.5348,2.3264,-1.681,-1.0627,0.2866,12.5443,2.9212,1.1653,-3.4037,-0.2107,-11.1671,3.547,3.6634,2.1905,-2.6567,-1.0016,-11.2062,-3.3694,3.5601,0.049886,0,1698649706,76
0.0789,0.017,-0.2884,1.4168,2.2947,-1.3319,-1.2553,0.1211,12.619,3.0991,1.1511,-3.2312,-0.0551,-11.1304,3.3773,3.457,2.1728,-2.356,-0.7639,-11.2011,-3.3322,3.2905,0.221179,0,1698649706,77
0.0726,-0.1773,-0.279,1.2946,2.5649,-0.9593,-1.3469,-0.2761,12.8176,2.9029,1.2508,-3.0572,0.099,-11.047,3.1231,3.1655,2.1394,-2.0832,-0.5342,-11.0685,-3.311,2.9818,0.383075,0,1698649706,77
0.0629,-0.3973,-0.2706,1.2039,2.7808,-0.7287,-1.4078,-1.092,12.606,2.8885,1.4143,-2.7883,0.2656,-10.8243,2.8733,2.8398,2.0742,-1.7734,-0.3088,-10.729,-3.2882,2.7068,0.518556,0,1698649706,78
0.05,-0.5942,-0.2614,1.1451,2.7243,-0.5538,-1.4849,-1.6123,12.0369,3.0772,1.6223,-2.4098,0.4316,-10.464,2.5916,2.5409,2.0551,-1.3673,-0.0921,-10.2216,-3.2474,2.467,0.624338,0,1698649706,79
0.0325,-0.8463,-0.2505,1.101,2.4572,-0.4291,-1.5474,-1.7187,11.3913,3.1967,1.8674,-1.8354,0.5623,-10.0157,2.2951,2.2487,2.0915,-0.8611,0.1172,-9.6083,-3.2225,2.21,0.706745,0,1698649706,79
0.0126,-1.1772,-0.2395,1.0626,2.3085,-0.4958,-1.5422,-1.85,10.8048,3.3228,2.1071,-1.2564,0.6135,-9.5146,2.0142,1.942,2.1197,-0.3324,0.3198,-8.9822,-3.1972,1.9052,0.770416,0,1698649706,80
-0.0085,-1.4203,-0.2287,1.0355,2.2373,-0.6295,-1.465,-1.9138,10.2536,3.3442,2.2081,-0.8083,0.5894,-9.0022,1.8222,1.7048,2.1143,0.1533,0.5027,-8.4061,-3.1549,1.5956,0.818606,0,1698649706,81
-0.0316,-1.6106,-0.2184,1.0431,2.0491,-0.7801,-1.3342,-1.947,9.6463,3.3165,2.423,-0.4944,0.5144,-8.5302,1.7284,1.526,2.0888,0.5722,0.6602,-7.9066,-3.0875,1.3428,0.855584,0,1698649706,81
-0.0554,-1.807,-0.2087,1.0656,1.7436,-0.9483,-1.1653,-1.9244,9.3046,3.1985,2.5676,-0.3366,0.4263,-8.1162,1.6475,1.3713,2.0997,1.0587,0.7765,-7.495,-2.9892,1.1558,0.885449,0,1698649706,82
-0.0791,-1.9705,-0.1997,1.0368,1.4406,-1.107,-0.983,-1.8203,9.0041,3.0654,2.3775,-0.3129,0.3426,-7.7971,1.6104,1.272,2.15,1.5235,0.8191,-7.1946,-2.8688,1.0113,0.910072,0,1698649706,83
-0.1034,-2.0823,-0.191,1.0007,1.1175,-1.2636,-0.7971,-1.6109,8.8685,3.0312,2.1531,-0.4087,0.2733,-7.5872,1.6208,1.2419,2.1736,1.588,0.784,-7.0395,-2.7469,0.932,0.929984,0,1698649706,83
-0.128,-2.1937,-0.1831,0.9437,0.8137,-1.3971,-0.6032,-1.321,8.8338,3.0354,1.9141,-0.593,0.2348,-7.5003,1.669,1.2843,2.1724,1.3449,0.6929,-7.0132,-2.637,0.9567,0.945582,0,1698649706,84
-0.1512,-2.2856,-0.1761,0.8783,0.5233,-1.4676,-0.4186,-0.9688,8.767,2.9676,1.7327,-0.7873,0.2415,-7.5336,1.7324,1.4121,2.1766,1.0803,0.5573,-7.0991,-2.5462,1.0804,0.95772,0,1698649706,85
-0.1746,-2.3556,-0.169,0.8497,0.3112,-1.5496,-0.2692,-0.6138,8.9754,2.8925,1.6727,-0.9084,0.2979,-7.6608,1.8171,1.5862,2.202,0.8756,0.3915,-7.2685,-2.4948,1.2556,0.967151,0,1698649706,85
-0.1975,-2.3767,-0.1621,0.8317,0.2241,-1.6337,-0.1012,-0.3867,9.0564,2.9696,1.725,-0.9607,0.3868,-7.8555,1.9314,1.7441,2.2583,0.743,0.2167,-7.4939,-2.4938,1.443,0.974478,0,1698649706,86
-0.2206,-2.3132,-0.1541,0.8395,0.1991,-1.694,0.0745,-0.2416,9.0842,3.0635,1.8653,-0.9357,0.5019,-8.0914,2.0313,1.8676,2.3149,0.6605,0.0605,-7.7678,-2.5412,1.6105,0.980169,0,1698649706,87
-0.2431,-2.2823,-0.1464,0.8657,0.131,-1.6555,0.2365,0.0192,9.2301,2.9734,2.0467,-0.8115,0.6263,-8.3218,2.1038,1.9836,2.3461,0.6517,-0.0421,-8.0129,-2.6282,1.7322,0.984589,0,1698649707,87
-0.2629,-2.2489,-0.139,0.8508,0.0697,-1.5515,0.4212,0.2042,9.3544,2.8694,2.1911,-0.6315,0.7135,-8.5226,2.1417,2.0731,2.3532,0.737,-0.0903,-8.1947,-2.7386,1.7921,0.988025,0,1698649707,88
-0.282,-2.1693,-0.1309,0.8057,0.0723,-1.3856,0.5952,0.4125,9.4223,2.8517,2.2469,-0.4576,0.7301,-8.7162,2.1511,2.1261,2.3281,0.8748,-0.1123,-8.3232,-2.8395,1.8065,0.990695,0,1698649707,89
-0.3,-2.0937,-0.1229,0.7837,0.1212,-1.1953,0.762,0.5879,9.4593,2.8851,2.217,-0.3481,0.662,-8.9172,2.1705,2.1859,2.2447,0.9998,-0.1363,-8.4197,-2.9195,1.811,0.992771,0,1698649707,89
-0.3175,-2.0246,-0.1152,0.793,0.1208,-0.9367,0.9162,0.7309,9.5672,2.8233,2.1171,-0.3252,0.5197,-9.0936,2.2221,2.2522,2.0981,1.0755,-0.1813,-8.5107,-2.9499,1.8327,0.994383,0,1698649707,90
-0.3341,-1.9235,-0.1083,0.7875,0.0796,-0.6532,1.0761,0.7933,9.7509,2.7563,1.9602,-0.3544,0.335,-9.2268,2.2897,2.3253,1.916,1.1684,-0.224,-8.6025,-2.9272,1.8771,0.995621,0,1698649707,91
-0.3502,-1.8509,-0.1021,0.7437,0.0749,-0.4083,1.2633,0.6996,9.8966,2.7559,1.7779,-0.365,0.1549,-9.2977,2.3503,2.418,1.7712,1.538,-0.2443,-8.6639,-2.8904,1.9134,0.996427,0,1698649707,91
-0.3663,-1.7875,-0.0962,0.6742,0.0499,-0.1149,1.4454,0.6591,10.1353,2.6537,1.5723,-0.1109,-0.0063,-9.2945,2.4302,2.5487,1.6596,2.0867,-0.2422,-8.7007,-2.8577,1.9526,0.995309,0,1698649707,92
-0.3812,-1.7335,-0.0915,0.5996,-0.0419,0.1982,1.5928,0.6421,10.2606,2.6137,1.3377,0.1377,-0.1613,-9.2375,2.5067,2.6823,1.4706,2.3935,-0.2218,-8.7223,-2.8399,2.0154,0.992017,0,1698649707,93
-0.3951,-1.711,-0.0881,0.5274,-0.2138,0.4908,1.7089,0.681,10.2821,2.6082,1.0796,0.145,-0.2979,-9.1441,2.5509,2.7759,1.1952,2.4453,-0.2094,-8.6845,-2.8391,2.0593,0.982315,0,1698649707,93
-0.4084,-1.6312,-0.0848,0.4805,-0.3635,0.7214,1.8486,0.6647,10.2848,2.5302,0.7837,0.1864,-0.4092,-9.0164,2.582,2.8487,0.9284,2.5366,-0.1998,-8.598,-2.8208,2.0734,0.951263,0,1698649707,94
-0.4199,-1.5378,-0.0813,0.4654,-0.415,0.8606,2.0244,0.4621,10.0704,2.5773,0.4967,0.2689,-0.4828,-8.8742,2.5968,2.9076,0.7339,2.7183,-0.1991,-8.5142,-2.7685,2.0606,0.893774,0,1698649707,95
-0.4302,-1.4758,-0.0777,0.4482,-0.5206,1.0342,2.1397,0.3453,9.9609,2.5102,0.2449,0.3653,-0.5238,-8.7446,2.5955,2.9383,0.5659,2.7981,-0.2088,-8.4438,-2.7021,2.0421,0.831356,0,1698649707,95
-0.4396,-1.3688,-0.0743,0.4047,-0.653,1.2143,2.184,0.2703,10.0308,2.2969,-0.0044,0.4709,-0.5437,-8.6166,2.5872,2.939,0.3467,2.7382,-0.2257,-8.376,-2.6452,2.0282,0.824844,0,1698649707,96
-0.4476,-1.2061,-0.0711,0.3811,-0.7754,1.3294,2.1963,0.1129,10.0522,2.2317,-0.2381,0.5683,-0.5344,-8.495,2.5594,2.9317,0.081,2.6107,-0.2482,-8.3212,-2.6131,2.0236,0.863646,0,1698649707,97
-0.4534,-1.0325,-0.0673,0.4058,-0.9036,1.5084,2.1769,0.1209,9.8336,2.2116,-0.4324,0.6916,-0.4999,-8.3834,2.5018,2.9344,-0.1569,2.487,-0.264,-8.2693,-2.5894,2.0146,0.894085,0,1698649707,97
-0.4577,-0.8823,-0.0628,0.4235,-0.9453,1.6703,2.1183,0.2575,9.6497,2.1104,-0.5552,0.8581,-0.4451,-8.2901,2.4225,2.9407,-0.334,2.4147,-0.2711,-8.2159,-2.5641,1.9917,0.91773,0,1698649707,98
-0.4611,-0.7565,-0.0586,0.3914,-0.9453,1.7612,1.9893,0.3619,9.6747,2.0021,-0.6097,1.0233,-0.3769,-8.2064,2.3697,2.9374,-0.4784,2.391,-0.2528,-8.1517,-2.5356,1.9851,0.936096,0,1698649707,99
-0.4628,-0.6294,-0.0555,0.3575,-0.9931,1.8233,1.8107,0.3707,9.6738,1.9464,-0.6469,1.1711,-0.3102,-8.1093,2.34,2.9177,-0.6135,2.4143,-0.1977,-8.073,-2.5141,1.9943,0.950361,0,1698649707,99
-0.4631,-0.4897,-0.0532,0.3296,-1.0608,1.8613,1.6234,0.3323,9.6287,1.91,-0.7278,1.2971,-0.2594,-8.0098,2.3113,2.8818,-0.7356,2.4674,-0.1233,-7.9952,-2.512,2.0002,0.961441,0,1698649707,0
-0.463,-0.3814,-0.0507,0.3007,-1.1748,1.9129,1.4473,0.346,9.4251,1.8454,-0.8912,1.3906,-0.2258,-7.9518,2.2989,2.8285,-0.8431,2.5103,-0.0426,-7.9341,-2.5323,1.9839,0.970047,0,1698649707,1
-0.463,-0.3088,-0.0475,0.3066,-1.3341,1.9531,1.2687,0.3674,9.1255,1.7702,-1.099,1.4565,-0.2014,-7.9281,2.2783,2.7679,-0.9488,2.5147,0.0372,-7.8929,-2.5633,1.9545,0.976731,0,1698649707,1
-0.4629,-0.2351,-0.0441,0.3154,-1.3887,1.9288,1.0635,0.3666,8.8482,1.7654,-1.2818,1.5093,-0.18,-7.9105,2.2248,2.7168,-1.048,2.4644,0.1137,-7.8578,-2.5989,1.9222,0.981918,0,1698649707,2
-0.4628,-0.1732,-0.0408,0.3061,-1.3886,1.8674,0.8326,0.288,8.7322,1.7887,-1.4203,1.5495,-0.1548,-7.8886,2.1449,2.6613,-1.1463,2.3358,0.1918,-7.8177,-2.6623,1.8945,0.985937,0,1698649707,3
-0.4627,-0.1219,-0.038,0.2882,-1.4626,1.8282,0.591,0.2039,8.8546,1.7354,-1.5322,1.5842,-0.1233,-7.8696,2.0688,2.6249,-1.2465,2.1235,0.2644,-7.7921,-2.7536,1.8906,0.989032,0,1698649707,4
-0.4623,-0.0762,-0.0352,0.2778,-1.625,1.8148,0.3266,0.1691,9.071,1.6278,-1.631,1.617,-0.0826,-7.8819,1.9975,2.6293,-1.3303,1.8827,0.3276,-7.7889,-2.844,1.921,0.991337,0,1698649707,4
-0.4614,-0.0451,-0.0316,0.3039,-1.8141,1.7908,0.0608,0.1118,9.2009,1.5025,-1.7061,1.6264,-0.0348,-7.9228,1.9199,2.6693,-1.3843,1.648,0.3682,-7.793,-2.8979,1.9646,0.992722,0,1698649707,5
-0.4598,0.006,-0.0273,0.3591,-1.7965,1.6903,-0.167,0.0644,9.1457,1.3926,-1.7294,1.5944,0.0176,-7.9924,1.827,2.738,-1.4076,1.4426,0.3801,-7.8344,-2.9095,2.0164,0.992155,0,1698649707,6
-0.4577,0.0597,-0.0223,0.4219,-1.5784,1.5551,-0.3465,0.0289,8.8622,1.4328,-1.6717,1.4929,0.0967,-8.0906,1.7303,2.8163,-1.4256,1.2252,0.3817,-7.8963,-2.9221,2.073,0.984082,0,1698649707,6
-0.4552,0.0898,-0.0167,0.4624,-1.4992,1.4979,-0.5004,0.1176,8.6998,1.5068,-1.5894,1.3578,0.1667,-8.1814,1.719,2.9019,-1.4532,0.966,0.3846,-7.9435,-2.9537,2.1284,0.946805,0,1698649707,7
-0.4518,0.1487,-0.0113,0.4836,-1.5571,1.4884,-0.6276,0.3073,8.8278,1.4794,-1.5306,1.2341,0.2142,-8.2638,1.7536,2.9612,-1.473,0.745,0.3861,-7.992,-2.9906,2.1826,0.842521,0,1698649707,8
-0.4474,0.2255,-0.0058,0.5172,-1.4751,1.4384,-0.7042,0.3836,8.8669,1.4235,-1.4815,1.1466,0.2784,-8.3624,1.7486,2.9837,-1.4713,0.5666,0.3804,-8.058,-3.0307,2.2221,0.674167,0,1698649707,9
-0.4426,0.2628,0.0002,0.5315,-1.2452,1.3458,-0.7441,0.3605,8.8507,1.3775,-1.4391,1.1093,0.3538,-8.4681,1.753,3.0023,-1.4606,0.3632,0.3708,-8.1359,-3.0873,2.2303,0.492405,0,1698649707,9
-0.4383,0.2905,0.0062,0.5207,-1.0112,1.2927,-0.7462,0.3217,8.9557,1.2907,-1.3976,1.0445,0.4192,-8.5761,1.7813,3.0186,-1.4625,0.1354,0.3634,-8.2026,-3.1521,2.2378,0.342371,0,1698649707,10
-0.434,0.3444,0.0122,0.5219,-0.7528,1.3137,-0.7273,0.2341,8.8505,1.2711,-1.4063,0.9277,0.4563,-8.6642,1.8014,3.0307,-1.4717,-0.0569,0.3619,-8.2619,-3.2102,2.2778,0.236359,0,1698649707,11
-0.4288,0.4189,0.0185,0.5338,-0.5469,1.3504,-0.728,0.1538,8.7912,1.3043,-1.4352,0.7833,0.4971,-8.7357,1.7938,3.0455,-1.4856,-0.208,0.3616,-8.3342,-3.2467,2.33,0.164931,0,1698649707,11
-0.4231,0.4498,0.0246,0.5503,-0.4203,1.4011,-0.7362,0.1849,8.9854,1.3108,-1.4475,0.6413,0.5441,-8.8021,1.8055,3.1099,-1.5024,-0.3551,0.3648,-8.3994,-3.2551,2.3956,0.118999,0,1698649707,12
-0.4175,0.4524,0.0306,0.5537,-0.3296,1.4967,-0.7281,0.2716,9.1165,1.3514,-1.4638,0.4978,0.5721,-8.8502,1.8534,3.2019,-1.5112,-0.478,0.3851,-8.4514,-3.2487,2.4725,0.09113,0,1698649707,13
-0.4116,0.4761,0.0367,0.5549,-0.2072,1.5888,-0.7184,0.3692,9.1365,1.4423,-1.479,0.3318,0.599,-8.8876,1.8943,3.2685,-1.5078,-0.5555,0.4171,-8.5115,-3.2294,2.5403,0.07922,0,1698649707,14
-0.4055,0.4896,0.0419,0.525,-0.0686,1.6698,-0.7151,0.4121,9.1868,1.5185,-1.4849,0.1585,0.6344,-8.9156,1.9333,3.312,-1.4983,-0.62,0.4573,-8.5775,-3.2162,2.6044,0.086334,0,1698649707,14
-0.4009,0.4511,0.046,0.4737,-0.0181,1.7506,-0.7168,0.4032,9.3985,1.5124,-1.4869,-0.0178,0.6644,-8.9293,1.9718,3.3305,-1.4884,-0.6768,0.5133,-8.6279,-3.2268,2.6711,0.110518,0,1698649707,15
-0.3989,0.3488,0.0496,0.4341,-0.0044,1.8099,-0.6985,0.3386,9.6162,1.4441,-1.497,-0.1684,0.686,-8.9517,1.986,3.3566,-1.4714,-0.7151,0.5703,-8.6503,-3.2642,2.7188,0.144131,0,1698649707,16
-0.3986,0.2518,0.0534,0.3981,0.0429,1.8722,-0.6579,0.2809,9.6874,1.2788,-1.4929,-0.2581,0.7053,-9.0073,1.98,3.3965,-1.4479,-0.7592,0.6104,-8.6804,-3.3197,2.7506,0.195816,0,1698649707,16
-0.3987,0.1942,0.0567,0.3715,0.1835,1.9393,-0.6128,0.3398,9.6444,1.0286,-1.4658,-0.3235,0.7255,-9.1034,1.9792,3.4568,-1.4185,-0.8336,0.6296,-8.7426,-3.3804,2.8001,0.285604,0,1698649707,17
-0.3988,0.161,0.0597,0.3523,0.3908,2.023,-0.5521,0.4222,9.6347,0.7893,-1.4585,-0.4459,0.7471,-9.2155,2.0049,3.5427,-1.3958,-0.9604,0.6147,-8.8302,-3.4169,2.8918,0.385787,0,1698649707,18
-0.3988,0.1231,0.0627,0.3656,0.6225,2.1459,-0.4675,0.5348,9.6037,0.6146,-1.5047,-0.6586,0.769,-9.3167,2.0654,3.6548,-1.4088,-1.3248,0.592,-8.9453,-3.4132,2.9891,0.450397,0,1698649707,19
-0.3988,0.1004,0.0664,0.3998,0.8392,2.2865,-0.3549,0.6928,9.5879,0.4835,-1.619,-0.9686,0.7894,-9.4023,2.1568,3.7649,-1.4368,-1.7032,0.5915,-9.0836,-3.3868,3.0712,0.482791,0,1698649707,19
-0.3987,0.0961,0.071,0.4295,0.9708,2.4733,-0.2325,0.8589,9.7267,0.3809,-1.8365,-1.362,0.7916,-9.5022,2.3005,3.8678,-1.467,-1.8958,0.6004,-9.291,-3.3673,3.1379,0.504336,0,1698649707,20
-0.3976,0.1134,0.0756,0.4379,0.8498,2.6619,-0.1383,0.8967,10.598,0.1649,-2.1367,-1.7775,0.7967,-9.6137,2.4883,3.9956,-1.5945,-2.2319,0.6304,-9.5331,-3.3511,3.1955,0.520391,0,1698649707,21
-0.3931,0.225,0.0784,0.3823,0.6049,2.874,-0.0643,0.7523,11.7006,-0.1275,-2.4619,-2.1615,0.8246,-9.7137,2.6753,4.0996,-1.7583,-2.6695,0.6886,-9.7264,-3.3089,3.224,0.578147,0,1698649707,21
-0.3841,0.467,0.0793,0.3011,0.4727,3.0344,0.0094,0.5296,12.0864,-0.0929,-2.8056,-2.5348,0.8633,-9.8502,2.8195,4.1673,-1.8846,-2.9377,0.7423,-9.9365,-3.306,3.2103,0.671376,0,1698649707,22
-0.3704,0.7803,0.0791,0.2274,0.2362,3.0474,0.1093,0.1825,11.9362,0.391,-3.1502,-2.8461,0.9163,-10.1061,2.9542,4.2028,-2.0927,-3.0932,0.7431,-10.2728,-3.3907,3.2449,0.744728,0,1698649707,23
-0.3538,1.0394,0.0788,0.1634,0.1769,2.9374,0.2771,-0.3724,11.4993,1.1598,-3.399,-3.0376,0.9967,-10.5051,3.0556,4.2181,-2.3148,-3.3751,0.7105,-10.6942,-3.512,3.3441,0.801713,0,1698649707,24
-0.3364,1.1954,0.0785,0.1251,0.4359,2.6865,0.5567,-1.1852,11.5144,1.7334,-3.5216,-3.1224,1.1009,-10.9446,3.0729,4.25,-2.3169,-3.6758,0.692,-11.0265,-3.6172,3.3985,0.845812,0,1698649707,24
-0.3197,1.2896,0.0779,0.0666,0.6712,2.4304,0.9741,-1.9076,11.8423,2.0367,-3.5342,-3.063,1.1887,-11.297,3.007,4.2598,-2.1021,-4.016,0.7041,-11.1992,-3.738,3.3691,0.850005,0,1698649707,25
-0.3049,1.3341,0.076,-0.0065,0.9417,1.9962,1.4457,-2.4019,12.1432,2.2686,-3.3641,-2.7476,1.2603,-11.5052,2.874,4.1685,-1.8168,-4.2733,0.751,-11.2234,-3.8486,3.3174,0.768285,0,1698649707,26
-0.2925,1.3092,0.0713,-0.1232,1.0922,1.4894,1.8853,-2.6132,11.9947,2.6251,-3.0267,-2.2044,1.2962,-11.5672,2.7768,3.9453,-1.5219,-4.2431,0.7865,-11.1166,-3.8805,3.2147,0.651112,0,1698649707,26
-0.2837,1.2098,0.0632,-0.3067,0.9432,1.071,2.1782,-2.4363,11.9748,2.7937,-2.5396,-1.5174,1.2807,-11.5074,2.6952,3.638,-1.217,-4.0271,0.7732,-10.9155,-3.8358,3.0235,0.564315,0,1698649707,27
-0.2778,1.0758,0.0513,-0.4986,0.7107,0.6157,2.3119,-2.0602,12.3231,2.882,-1.9558,-0.7528,1.1946,-11.3243,2.6286,3.3373,-0.912,-3.6019,0.7399,-10.6022,-3.6886,2.7774,0.502619,0,1698649707,28
-0.2737,0.9145,0.0354,-0.7548,0.5779,0.2091,2.3621,-1.6443,12.1217,3.2616,-1.4206,0.0617,1.0262,-10.9812,2.6808,3.0415,-0.6972,-3.0902,0.7174,-10.1808,-3.4582,2.5037,0.469405,0,1698649707,29
-0.2705,0.7755,0.0165,-1.0116,0.4551,-0.1773,2.3346,-1.3675,12.0291,3.325,-1.051,0.8188,0.8077,-10.4883,2.7327,2.797,-0.6139,-2.57,0.7093,-9.6998,-3.1876,2.2192,0.456403,0,1698649707,29
-0.2667,0.7014,-0.003,-1.1788,0.3699,-0.3991,2.2426,-1.0435,11.6835,3.1797,-0.8916,1.5211,0.5578,-9.851,2.7796,2.5707,-0.6626,-2.0637,0.686,-9.2043,-2.8759,1.9298,0.439011,0,1698649707,30
-0.2612,0.7095,-0.0245,-1.3911,0.2663,-0.4095,2.0731,-0.7752,10.8636,3.2622,-0.8557,2.1049,0.2947,-9.1558,2.7706,2.3162,-0.8606,-1.621,0.6695,-8.7313,-2.5642,1.6529,0.364756,0,1698649707,31
-0.2528,0.7626,-0.0506,-1.6232,0.0469,-0.2965,1.8562,-0.5463,10.2541,3.4089,-0.9027,2.5217,0.0401,-8.5407,2.7296,2.1,-1.1371,-1.1092,0.7275,-8.3259,-2.2524,1.3841,0.223071,0,1698649707,31
-0.2431,0.7767,-0.0769,-1.7742,-0.1712,-0.1091,1.6528,-0.2247,9.7071,3.4515,-0.9895,2.7509,-0.1815,-8.0314,2.7647,1.9246,-1.4345,-0.5669,0.8237,-8.0193,-1.9255,1.1264,0.07647,0,1698649707,32
-0.2344,0.791,-0.101,-1.8987,-0.2929,0.103,1.5016,0.0551,9.1131,3.4982,-1.074,2.6835,-0.3128,-7.6235,2.8002,1.7368,-1.7482,-0.2632,0.8924,-7.8164,-1.6344,0.9321,-0.047346,0,1698649707,33
-0.2262,0.7874,-0.1278,-2.1105,-0.2878,0.3001,1.3893,0.235,8.6341,3.5018,-1.184,2.4411,-0.3423,-7.3454,2.8074,1.5176,-2.0379,-0.231,0.9219,-7.7008,-1.4225,0.818,-0.154559,0,1698649707,34
-0.2185,0.7869,-0.1542,-2.2444,-0.334,0.5171,1.2705,0.3584,8.3863,3.432,-1.3111,2.0304,-0.3158,-7.2158,2.7633,1.3686,-2.2219,-0.4719,0.8903,-7.6148,-1.3349,0.7351,-0.234609,0,1698649707,34
-0.2114,0.7804,-0.1786,-2.2891,-0.3802,0.7402,1.1519,0.3887,8.3705,3.3796,-1.4337,1.4898,-0.2466,-7.2295,2.7104,1.3431,-2.2678,-0.6189,0.7908,-7.5776,-1.3622,0.7586,-0.2484,0,1698649707,35
-0.2043,0.7559,-0.203,-2.3118,-0.4212,0.9135,1.0214,0.2386,8.5386,3.2568,-1.4991,0.9123,-0.1341,-7.3625,2.6409,1.4118,-2.2446,-0.757,0.6351,-7.6626,-1.5,0.8391,-0.186827,0,1698649707,36
-0.1977,0.7518,-0.2248,-2.3129,-0.4734,1.0941,0.8637,0.0263,8.7815,3.1099,-1.4392,0.3904,0.0112,-7.565,2.5386,1.5053,-2.2087,-1.1318,0.4425,-7.8425,-1.7024,0.9872,-0.088366,0,1698649707,36
-0.1916,0.7514,-0.2454,-2.2785,-0.3811,1.196,0.6723,-0.2907,8.9188,3.0655,-1.2622,0.0362,0.2,-7.8019,2.4503,1.6337,-2.2097,-1.6173,0.2751,-8.046,-1.9099,1.2409,0.004214,0,1698649707,37
-0.1852,0.7672,-0.2662,-2.208,-0.3273,1.2326,0.423,-0.616,8.999,3.0514,-1.0318,-0.1307,0.4182,-8.0531,2.4336,1.7703,-2.2072,-2.0659,0.1595,-8.2477,-2.1331,1.468,-0.057236,0,1698649707,38
-0.178,0.7785,-0.2861,-2.1915,-0.3093,1.215,0.1476,-0.8935,9.184,3.0356,-0.8018,-0.0968,0.6371,-8.3061,2.4684,1.88,-2.1506,-2.1332,0.0885,-8.4464,-2.3417,1.66,-0.246932,0,1698649707,39
-0.1704,0.7662,-0.3048,-2.1472,-0.292,1.1297,-0.091,-1.119,9.1724,3.0773,-0.5907,0.1444,0.842,-8.558,2.5465,1.9908,-2.1118,-1.9988,0.07,-8.6432,-2.4949,1.8221,-0.403449,0,1698649707,39
-0.1628,0.7596,-0.3228,-2.082,-0.2896,1.0098,-0.3045,-1.3203,9.031,3.0966,-0.4319,0.5166,0.9671,-8.7863,2.6187,2.083,-2.1166,-1.8262,0.0965,-8.8064,-2.5473,1.945,-0.528099,0,1698649707,40
-0.1551,0.7632,-0.3413,-2.0574,-0.2238,0.811,-0.5189,-1.5173,8.9902,3.0109,-0.346,0.9165,1.0132,-8.9697,2.6831,2.1594,-2.094,-1.5916,0.1469,-8.9196,-2.5346,2.0164,-0.629695,0,1698649707,41
-0.1473,0.7559,-0.36,-2.0219,-0.1523,0.5637,-0.711,-1.6193,8.9567,2.9258,-0.3032,1.2339,0.9944,-9.0964,2.7536,2.2271,-2.0252,-1.3617,0.2108,-9.0027,-2.5103,2.0513,-0.704416,0,1698649707,41
-0.1402,0.7177,-0.3763,-1.945,-0.1103,0.3111,-0.8875,-1.5958,9.0773,2.8442,-0.2802,1.4447,0.9202,-9.1521,2.8012,2.2839,-1.9565,-1.1516,0.2817,-9.0408,-2.4677,2.0643,-0.715702,0,1698649707,42
-0.1342,0.6723,-0.3907,-1.8605,-0.0607,0.0552,-1.039,-1.5242,9.2975,2.7563,-0.2427,1.5718,0.8216,-9.1539,2.8464,2.3342,-1.9056,-0.9764,0.3598,-9.0386,-2.4399,2.1002,-0.689527,0,1698649707,43
-0.1287,0.6436,-0.4053,-1.7369,-0.006,-0.1963,-1.1832,-1.4755,9.5631,2.6666,-0.1846,1.667,0.7033,-9.1365,2.8808,2.3735,-1.8661,-0.8506,0.4435,-9.0155,-2.4448,2.1608,-0.681171,0,1698649707,44
-0.1241,0.6013,-0.4182,-1.6247,0.0783,-0.4488,-1.336,-1.4291,9.7167,2.5542,-0.1445,1.8075,0.5935,-9.0857,2.9171,2.3859,-1.8176,-0.7154,0.5145,-8.9473,-2.4656,2.245,-0.683999,0,1698649707,44
-0.1195,0.5666,-0.4301,-1.5181,0.0568,-0.6441,-1.5144,-1.2958,9.8002,2.416,-0.1135,1.9814,0.504,-9.0005,2.949,2.3794,-1.7458,-0.4749,0.5627,-8.8387,-2.4915,2.359,-0.690485,0,1698649707,45
-0.1149,0.5514,-0.4414,-1.427,0.0043,-0.7923,-1.7126,-1.1412,10.0009,2.3149,-0.0799,2.177,0.4174,-8.9078,2.9591,2.3801,-1.6559,-0.1278,0.579,-8.7097,-2.4979,2.4679,-0.692819,0,1698649707,46
-0.1106,0.5463,-0.4513,-1.3395,0.0352,-0.9382,-1.9015,-1.0574,10.0442,2.2169,-0.03,2.3681,0.3433,-8.8022,2.9627,2.3902,-1.5708,0.1894,0.5575,-8.5655,-2.4866,2.5498,-0.685501,0,1698649707,46
-0.1063,0.5471,-0.4608,-1.2347,-0.044,-1.0106,-2.0968,-0.8676,10.0169,2.1292,0.0351,2.4807,0.2679,-8.6822,2.9326,2.402,-1.4944,0.4129,0.516,-8.404,-2.4712,2.6016,-0.666622,0,1698649707,47
-0.1014,0.5262,-0.4693,-1.1515,-0.149,-1.0267,-2.2741,-0.6872,9.8627,2.1394,0.1122,2.5026,0.1905,-8.5574,2.8686,2.4096,-1.4095,0.6026,0.4583,-8.2502,-2.4461,2.6336,-0.637215,0,1698649707,48
