right_q,right_q_dot,left_q,left_q_dot,pelv_ang_1,pelv_ang_2,pelv_ang_3,pelv_acc_1,pelv_acc_1,pelv_acc_3,right_chest_ang_x,right_chest_ang_y,right_chest_ang_z,right_chest_acc_x,right_chest_acc_y,right_chest_acc_z,left_chest_ang_x,left_chest_ang_y,left_chest_ang_z,left_chest_acc_x,left_chest_acc_y,left_chest_acc_z,,,,Label
-0.4397,-0.3299,0.0163,0.0736,-0.6909,-0.2895,1.2361,0.4085,10.1569,1.1923,1.0462,0.5238,0.1639,-8.8773,3.027,0.3207,0.4346,0.585,-0.0276,-9.0629,0.8852,2.1555,-0.107658,0,1698375084.2902,0
-0.4396,-0.2279,0.0166,0.0606,-0.8091,-0.2707,1.2325,0.4108,9.9401,1.3131,1.0253,0.6187,0.1975,-8.7071,2.9494,0.3403,0.5234,0.525,0.0675,-8.9138,0.8,2.1035,-0.288324,0,1698375084.3006,1
-0.4396,-0.1673,0.0175,0.0749,-1.0611,-0.2109,1.1641,0.6158,9.8663,1.2989,0.9972,0.6677,0.2168,-8.5514,2.8707,0.3407,0.6,0.4579,0.1645,-8.779,0.7111,2.0513,-0.410551,0,1698375084.3112,1
-0.4396,-0.1338,0.0191,0.0963,-1.1878,-0.2249,1.0615,0.7116,9.7047,1.3315,0.9438,0.647,0.2225,-8.454,2.7708,0.3328,0.6383,0.3802,0.2509,-8.6688,0.6556,2.0041,-0.449026,0,1698375084.3217,2
-0.4394,-0.0971,0.021,0.113,-1.2666,-0.258,0.9162,0.7751,9.501,1.3926,0.8623,0.5866,0.2277,-8.4117,2.6598,0.328,0.6347,0.3037,0.3248,-8.6034,0.6222,1.9546,-0.372559,0,1698375084.3319,3
-0.439,-0.0494,0.0224,0.1179,-1.3372,-0.2743,0.7608,0.8049,9.4608,1.4515,0.747,0.5047,0.2531,-8.3971,2.5762,0.3002,0.6132,0.2724,0.3881,-8.5973,0.5655,1.9103,-0.215404,0,1698375084.342,4
-0.4381,-0.0109,0.0234,0.107,-1.4943,-0.2196,0.6008,0.9435,9.5427,1.5348,0.6259,0.4139,0.3077,-8.4236,2.5204,0.2447,0.5905,0.2813,0.4357,-8.6315,0.5164,1.8861,-0.067937,0,1698375084.3527,4
-0.4368,0.0301,0.0247,0.1182,-1.6725,-0.265,0.4383,1.0199,9.579,1.6625,0.5318,0.3305,0.3612,-8.4945,2.4691,0.1748,0.5533,0.3061,0.4692,-8.6707,0.4838,1.8739,0.032148,0,1698375084.3631,5
-0.4335,0.0985,0.0261,0.1328,-1.7701,-0.3777,0.2549,0.9456,9.4097,1.6959,0.4707,0.2572,0.4045,-8.606,2.4174,0.0944,0.5304,0.385,0.485,-8.7276,0.4433,1.8497,0.09571,0,1698375084.3748,6
-0.4274,0.2031,0.0273,0.1412,-1.4938,-0.4309,-0.0564,0.6956,8.9412,1.7275,0.4452,0.1132,0.4608,-8.8878,2.3672,-0.0366,0.6473,0.5482,0.4729,-8.921,0.3731,1.7741,0.137161,0,1698375084.3862,7
-0.4204,0.3239,0.0287,0.1554,-1.287,-0.4146,-0.1413,0.6373,8.8665,1.7272,0.4793,0.1157,0.4853,-9.0063,2.3637,-0.0918,0.7406,0.6123,0.4631,-9.0396,0.3519,1.7356,0.172557,0,1698375084.3963,7
-0.4147,0.3911,0.031,0.1794,-1.1323,-0.4147,-0.2046,0.6706,8.8985,1.6786,0.5509,0.2003,0.5145,-9.1099,2.3554,-0.1496,0.8113,0.6714,0.4539,-9.1333,0.3355,1.7164,0.192599,0,1698375084.4064,8
-0.4099,0.41,0.0342,0.2215,-0.9023,-0.4318,-0.2376,0.6513,8.9621,1.6258,0.6466,0.2848,0.5389,-9.2013,2.362,-0.1967,0.8228,0.6952,0.4543,-9.1973,0.3367,1.7325,0.116222,0,1698375084.4168,9
-0.4057,0.4052,0.0376,0.255,-0.5284,-0.5405,-0.2701,0.5171,8.8383,1.7391,0.7132,0.3487,0.5553,-9.2589,2.3874,-0.2233,0.7747,0.7367,0.4675,-9.2502,0.3445,1.7362,-0.075089,0,1698375084.4276,10
-0.4027,0.3572,0.0411,0.2619,-0.2857,-0.5952,-0.3132,0.5075,8.7668,1.7298,0.7343,0.3634,0.568,-9.2759,2.4205,-0.2427,0.71,0.7919,0.5007,-9.3081,0.3447,1.707,-0.277055,0,1698375084.4381,10
-0.4016,0.2871,0.0449,0.2841,-0.2506,-0.5012,-0.328,0.5914,8.9194,1.5178,0.6961,0.3655,0.5941,-9.2479,2.4559,-0.2537,0.7177,0.7734,0.5555,-9.363,0.3532,1.6589,-0.434446,0,1698375084.4485,11
-0.4012,0.2351,0.0495,0.3174,-0.2208,-0.3482,-0.3505,0.7384,8.9556,1.3302,0.6196,0.3594,0.6314,-9.1917,2.4999,-0.2497,0.8038,0.6713,0.6236,-9.4003,0.3862,1.5836,-0.553817,0,1698375084.4602,12
-0.4005,0.2085,0.0543,0.3308,-0.0289,-0.2839,-0.3816,0.8526,9.0332,1.3221,0.5176,0.3223,0.6791,-9.14,2.5584,-0.2357,0.9064,0.5145,0.7063,-9.4124,0.452,1.5229,-0.609401,0,1698375084.4708,13
-0.4,0.1705,0.0586,0.3436,0.2181,-0.2134,-0.3981,0.9848,9.0451,1.3989,0.3685,0.2713,0.7426,-9.0825,2.6397,-0.2092,0.9513,0.3458,0.8106,-9.4071,0.5495,1.5002,-0.475595,0,1698375084.4808,13
-0.3998,0.126,0.0627,0.3646,0.364,-0.0335,-0.3743,1.2054,9.0795,1.3562,0.1759,0.1865,0.8047,-8.998,2.7413,-0.1703,0.8966,0.2011,0.9351,-9.3883,0.6868,1.4889,-0.199584,0,1698375084.4906,14
-0.3995,0.1099,0.0673,0.3914,0.519,0.2171,-0.309,1.4444,8.9902,1.3052,-0.0571,0.0815,0.8674,-8.9118,2.8542,-0.1344,0.7382,0.093,1.0787,-9.3636,0.8482,1.4686,0.053804,0,1698375084.5009,15
-0.3984,0.1434,0.0727,0.4116,0.6446,0.5285,-0.2718,1.7698,8.8043,1.2602,-0.3183,-0.0555,0.9442,-8.8494,2.9608,-0.1071,0.4703,0.0516,1.2353,-9.346,1.0094,1.4492,0.259711,0,1698375084.5108,15
-0.395,0.2423,0.0781,0.4235,0.8265,0.8112,-0.2771,2.0679,8.7101,1.202,-0.5995,-0.2641,1.0261,-8.8265,3.0651,-0.0765,0.0995,0.1064,1.3903,-9.3379,1.1586,1.4236,0.392851,0,1698375084.523,16
-0.3877,0.3624,0.0846,0.4478,1.1083,1.1655,-0.2726,2.3305,8.6469,1.1017,-0.8912,-0.5728,1.1041,-8.8588,3.1596,-0.053,-0.3394,0.1762,1.5455,-9.3677,1.286,1.4142,0.384533,0,1698375084.5343,17
-0.3777,0.4699,0.0925,0.4758,1.6382,2.2891,-0.2532,2.5451,8.7539,1.0966,-1.5332,-1.4512,1.333,-9.1259,3.4275,-0.0234,-1.4658,0.0918,1.8289,-9.6807,1.4943,1.4955,0.215433,0,1698375084.5462,18
-0.3664,0.5613,0.1002,0.505,1.8948,2.8222,-0.1961,2.2917,9.1569,1.3537,-1.8857,-2.0275,1.4814,-9.3319,3.5983,-0.0142,-2.1867,-0.0627,1.905,-9.9475,1.5606,1.5823,-0.015412,0,1698375084.5568,18
-0.3541,0.6789,0.1071,0.527,2.1631,3.0189,-0.1058,1.7977,9.6795,1.6421,-2.2934,-2.6028,1.647,-9.5477,3.7898,-0.0059,-2.9818,-0.2312,1.8865,-10.202,1.625,1.6569,-0.226069,0,1698375084.5675,19
-0.3423,0.7805,0.1128,0.4916,2.363,3.0916,0.0138,1.1622,10.3676,1.9434,-2.7199,-3.1401,1.8208,-9.7942,3.9719,-0.019,-3.7621,-0.3664,1.7844,-10.4211,1.71,1.7274,-0.386962,0,1698375084.5782,20
-0.3319,0.7863,0.1158,0.4064,2.3888,3.0612,0.2124,0.4467,11.3458,2.1154,-3.0734,-3.5489,1.9668,-10.0151,4.1254,-0.0442,-4.3316,-0.4492,1.6438,-10.6102,1.7988,1.794,-0.294361,0,1698375084.5887,21
-0.3242,0.7282,0.1166,0.3167,2.2997,2.9813,0.4041,-0.1707,11.9155,2.1942,-3.203,-3.7641,2.0641,-10.2101,4.2431,-0.1081,-4.5438,-0.6627,1.5234,-10.7536,1.8167,1.7425,-0.023377,0,1698375084.5998,21
-0.3195,0.6269,0.1164,0.2426,2.164,2.8647,0.5096,-0.5618,12.0699,2.2634,-3.049,-3.7208,2.1072,-10.4415,4.3251,-0.2192,-4.3951,-1.0304,1.4581,-10.8474,1.7683,1.5681,0.188041,0,1698375084.6109,22
-0.3173,0.5114,0.1155,0.143,1.8942,2.7613,0.5438,-0.8245,12.0177,2.2076,-2.7512,-3.452,2.0606,-10.6558,4.3994,-0.3453,-4.0887,-1.3417,1.4269,-10.9178,1.7152,1.3158,0.361681,0,1698375084.6213,23
-0.3157,0.4446,0.1125,-0.001,1.7775,2.6989,0.5388,-1.1047,11.4758,2.1196,-2.4986,-3.1665,1.8992,-10.7979,4.4741,-0.4703,-3.843,-1.5715,1.4138,-10.9306,1.7015,1.003,0.500229,0,1698375084.6312,24
-0.3121,0.4607,0.106,-0.1653,1.9416,2.5235,0.4625,-1.1461,10.5585,2.3434,-2.4064,-2.868,1.6502,-10.8411,4.5472,-0.5473,-3.6684,-1.692,1.4019,-10.8614,1.7625,0.7371,0.610477,0,1698375084.6412,24
-0.3049,0.5665,0.0956,-0.3607,1.8305,2.4222,0.2328,-0.5909,10.4351,2.4346,-2.4642,-2.5689,1.3673,-10.7288,4.6167,-0.57,-3.5054,-1.7439,1.3969,-10.729,1.9016,0.5688,0.697062,0,1698375084.6507,25
-0.2948,0.7052,0.0815,-0.5841,1.4212,2.531,-0.0675,0.0871,10.7394,2.386,-2.6456,-2.2044,1.0837,-10.4764,4.6906,-0.5526,-3.3798,-1.7544,1.3965,-10.5356,2.1015,0.4784,0.764457,0,1698375084.6615,26
-0.2821,0.8481,0.0637,-0.8193,1.0053,2.5822,-0.282,0.352,10.9215,2.5399,-2.6373,-1.7543,0.8183,-10.1387,4.7908,-0.5233,-3.3571,-1.5938,1.391,-10.3148,2.3496,0.443,0.816323,0,1698375084.6717,26
-0.2691,0.9345,0.0442,-1.0825,0.8936,2.5505,-0.3412,0.1962,10.949,2.7647,-2.6419,-1.2172,0.6206,-9.7732,4.8767,-0.5334,-3.4674,-1.1801,1.3885,-10.1236,2.5994,0.4269,0.852575,0,1698375084.6824,27
-0.2572,0.9556,0.0238,-1.3357,0.7787,2.6374,-0.3079,0.0089,10.8053,2.9174,-2.8747,-0.5955,0.5011,-9.4038,4.937,-0.5616,-3.6561,-0.6714,1.3907,-9.9576,2.7876,0.4289,0.870697,0,1698375084.6919,28
-0.2467,0.9698,0.0022,-1.5063,0.5097,2.7595,-0.2412,-0.0514,10.8994,2.9486,-3.0283,-0.0735,0.4263,-9.0391,4.976,-0.5971,-3.8181,-0.2805,1.3934,-9.7558,2.8951,0.4515,0.863246,0,1698375084.702,29
-0.2366,0.9978,-0.0206,-1.6185,0.2768,2.8015,-0.1715,-0.2436,10.7806,3.0194,-3.0939,0.3091,0.3706,-8.7029,4.9625,-0.6367,-3.8893,-0.0518,1.4014,-9.491,2.9146,0.4667,0.812544,0,1698375084.7122,29
-0.2256,1.0558,-0.0446,-1.7434,0.0176,2.8358,-0.1326,-0.5123,10.586,3.0372,-3.0835,0.584,0.3198,-8.4049,4.8815,-0.6688,-3.8654,0.0712,1.4153,-9.2041,2.859,0.4523,0.725201,0,1698375084.7221,30
-0.2144,1.074,-0.0691,-1.9118,-0.1343,2.854,-0.1042,-0.7676,10.2434,3.0043,-3.0447,0.7967,0.2675,-8.1707,4.7576,-0.6785,-3.7718,0.1233,1.4252,-8.9273,2.7567,0.4371,0.639218,0,1698375084.7322,31
-0.2029,1.0606,-0.0936,-2.0969,-0.2012,2.8016,-0.1034,-1.0487,9.7333,2.9434,-3.0197,0.996,0.1911,-7.9987,4.6237,-0.6879,-3.6472,0.0871,1.4184,-8.6684,2.6254,0.4467,0.571846,0,1698375084.7419,32
-0.1916,1.0741,-0.1179,-2.2434,-0.1586,2.651,-0.1462,-1.2884,9.3275,2.9485,-3.0336,1.2071,0.0849,-7.8705,4.494,-0.7131,-3.5069,-0.0884,1.3799,-8.4511,2.506,0.4659,0.517211,0,1698375084.7519,32
-0.1807,1.1019,-0.1413,-2.3407,-0.2388,2.5885,-0.2358,-1.4014,9.1149,2.8164,-3.0682,1.4008,-0.0436,-7.7645,4.3944,-0.7496,-3.3579,-0.3765,1.3262,-8.2868,2.4387,0.4995,0.470836,0,1698375084.7619,33
-0.1702,1.0782,-0.1632,-2.3643,-0.3446,2.2895,-0.2516,-1.5228,9.0674,2.5909,-3.0882,1.5854,-0.1545,-7.6842,4.2964,-0.7912,-3.1876,-0.6735,1.2631,-8.1822,2.41,0.558,0.430921,0,1698375084.7735,34
-0.1594,1.0423,-0.1851,-2.2569,-0.4557,2.024,-0.3185,-1.3234,9.1716,2.1717,-3.1106,1.7322,-0.2628,-7.6481,4.2484,-0.8332,-2.982,-0.9034,1.1809,-8.1445,2.4114,0.6373,0.396375,0,1698375084.7838,35
-0.1489,1.04,-0.2052,-2.1239,-0.3244,1.4535,-0.6505,-1.766,8.8847,2.3784,-3.146,2.0245,-0.38,-7.6874,4.202,-0.9042,-2.4688,-1.1849,0.9674,-8.2382,2.4378,0.8651,0.365154,0,1698375084.795,35
-0.1397,1.0226,-0.2226,-2.0064,-0.0719,1.1113,-0.8337,-2.1222,8.6015,2.5102,-3.0728,2.1278,-0.3528,-7.7853,4.1633,-0.9308,-2.1903,-1.2392,0.8532,-8.3115,2.4218,0.959,0.335028,0,1698375084.8056,36
-0.1314,0.9676,-0.2394,-1.8557,0.0816,0.7441,-1.0612,-2.2209,8.4121,2.6195,-2.9103,2.2489,-0.3094,-7.8728,4.1263,-0.9347,-1.9458,-1.2047,0.7415,-8.3687,2.3859,1.0084,0.304447,0,1698375084.8167,37
-0.1238,0.8973,-0.2549,-1.7205,0.154,0.3396,-1.3197,-2.1532,8.421,2.6125,-2.7202,2.395,-0.3141,-7.947,4.0954,-0.9206,-1.7405,-1.0918,0.6428,-8.4008,2.3213,1.0099,0.269083,0,1698375084.8277,38
-0.1171,0.8174,-0.2692,-1.6244,0.3304,-0.105,-1.5622,-2.1364,8.5803,2.5437,-2.4779,2.4692,-0.368,-8.0206,4.0366,-0.9323,-1.5436,-0.9905,0.5653,-8.4223,2.2258,1.0082,0.192913,0,1698375084.8382,38
-0.1118,0.7203,-0.282,-1.5414,0.5355,-0.4938,-1.7727,-2.2231,8.5631,2.4675,-2.179,2.4579,-0.4662,-8.0705,3.9795,-0.9324,-1.36,-0.9187,0.5,-8.425,2.1117,1.0367,0.131728,0,1698375084.8481,39
-0.108,0.6295,-0.2934,-1.4417,0.6301,-0.8614,-1.9576,-2.2148,8.7203,2.3822,-1.9092,2.3297,-0.5893,-8.085,3.898,-0.9447,-1.1756,-0.8228,0.4279,-8.393,2.01,1.0757,0.122315,0,1698375084.8583,40
-0.1049,0.568,-0.3042,-1.3684,0.7811,-1.2543,-2.1012,-2.2741,8.8446,2.3533,-1.6989,2.0215,-0.7138,-8.0949,3.8004,-0.9644,-0.9736,-0.6895,0.3566,-8.356,1.9254,1.114,0.114407,0,1698375084.8688,40
-0.102,0.5076,-0.315,-1.3283,0.7314,-1.4546,-2.1803,-2.1948,9.0084,2.1411,-1.6037,1.7462,-0.8217,-8.0989,3.7356,-0.9661,-0.7791,-0.5315,0.2808,-8.3298,1.8563,1.1847,0.101388,0,1698375084.8802,41
-0.0985,0.453,-0.3264,-1.2664,0.5752,-1.5105,-2.1787,-1.8761,9.264,1.8627,-1.5545,1.4395,-0.8637,-8.0881,3.6612,-0.9875,-0.6034,-0.3576,0.1929,-8.3123,1.802,1.2954,0.084574,0,1698375084.8922,42
-0.0945,0.4198,-0.3369,-1.1562,0.5289,-1.5668,-2.105,-1.5882,9.253,1.7226,-1.4932,1.2013,-0.8622,-8.0831,3.5939,-1.0078,-0.4235,-0.2276,0.0957,-8.3172,1.7673,1.3906,0.06568,0,1698375084.9019,43
-0.0907,0.4068,-0.3457,-1.0581,0.5943,-1.6735,-1.9779,-1.3413,9.2249,1.7573,-1.3954,1.2404,-0.8262,-8.1079,3.5808,-0.964,-0.2215,-0.2221,-0.0275,-8.3504,1.7668,1.4762,0.030299,0,1698375084.912,43
-0.0869,0.4163,-0.3532,-1.0075,0.6655,-1.7709,-1.8204,-1.2107,9.2156,1.8773,-1.1992,1.2878,-0.7479,-8.1277,3.6155,-0.8971,0.007,-0.3056,-0.165,-8.39,1.7994,1.5831,-0.022511,0,1698375084.922,44
-0.0823,0.431,-0.3597,-0.9404,0.5487,-1.694,-1.6631,-1.0564,9.2688,1.8238,-0.9795,1.4354,-0.6836,-8.1446,3.6626,-0.8438,0.2304,-0.3841,-0.2914,-8.4353,1.8612,1.6912,-0.064895,0,1698375084.9321,45
-0.0775,0.4341,-0.366,-0.8589,0.452,-1.5865,-1.5051,-0.963,9.4361,1.7718,-0.7697,1.7188,-0.6218,-8.2051,3.7475,-0.7701,0.41,-0.388,-0.3887,-8.5004,1.9352,1.7915,-0.08555,0,1698375084.942,46
-0.0732,0.4044,-0.3717,-0.7935,0.3369,-1.486,-1.3322,-0.9787,9.6389,1.7706,-0.536,1.9696,-0.5517,-8.2599,3.8626,-0.6896,0.5367,-0.3458,-0.4583,-8.5712,2.0058,1.8827,-0.098667,0,1698375084.9528,46
-0.069,0.3758,-0.3765,-0.7216,0.1955,-1.3509,-1.1688,-0.9462,9.7877,1.7316,-0.2948,2.1772,-0.4682,-8.278,3.9505,-0.6251,0.6274,-0.3387,-0.5005,-8.6271,2.0769,1.9601,-0.107769,0,1698375084.9641,47
-0.0641,0.3993,-0.3814,-0.6433,-0.0684,-1.1375,-0.8928,-1.0449,9.7361,1.8516,0.0185,1.9435,-0.4018,-8.2825,4.1383,-0.5131,0.6386,-0.3249,-0.5444,-8.6865,2.2309,1.9722,-0.106426,0,1698375084.9753,48
-0.0592,0.4374,-0.3859,-0.5716,-0.2182,-0.9933,-0.7364,-1.062,9.7273,1.833,0.0379,1.5416,-0.4311,-8.2473,4.229,-0.4565,0.5387,-0.2185,-0.552,-8.6922,2.322,1.936,-0.089939,0,1698375084.9856,49
-0.0556,0.4221,-0.3891,-0.4867,-0.6337,-0.8156,-0.5586,-1.0665,9.65,1.7995,0.0402,1.1792,-0.4469,-8.2175,4.2796,-0.3765,0.4389,-0.0412,-0.5357,-8.6722,2.3907,1.8801,-0.060996,0,1698375084.9968,49
-0.0529,0.3693,-0.3911,-0.415,-0.9606,-0.4594,-0.4104,-0.988,9.6044,1.7959,0.1033,0.8585,-0.4397,-8.1823,4.3075,-0.3093,0.3682,0.1315,-0.5001,-8.6536,2.4544,1.8075,-0.081939,0,1698375085.0077,50
-0.0501,0.3336,-0.3924,-0.3539,-0.9742,-0.1981,-0.2978,-0.9371,9.5454,1.837,0.2086,0.5702,-0.4391,-8.1547,4.3275,-0.2974,0.2844,0.3312,-0.4502,-8.625,2.5165,1.7538,-0.179169,0,1698375085.019,51
-0.0465,0.3392,-0.3941,-0.2962,-0.9695,-0.1775,-0.1975,-0.9385,9.4579,1.8435,0.2622,0.3616,-0.4532,-8.1491,4.3415,-0.3024,0.1596,0.6125,-0.3979,-8.5911,2.5666,1.7214,-0.267358,0,1698375085.0302,51
-0.0427,0.3502,-0.3953,-0.245,-0.8866,-0.1751,-0.0864,-1.0061,9.2681,1.9301,0.2332,0.2592,-0.4667,-8.1503,4.3529,-0.2766,0.0115,0.9161,-0.3632,-8.5722,2.5927,1.715,-0.279146,0,1698375085.0405,52
-0.0394,0.3385,-0.3957,-0.1869,-0.7864,-0.1869,0.0255,-1.0725,9.1214,1.9572,0.1825,0.2573,-0.4746,-8.1593,4.3692,-0.2466,-0.1018,1.0941,-0.3525,-8.5693,2.5825,1.7231,-0.227379,0,1698375085.0505,53
-0.0368,0.3179,-0.3958,-0.1416,-0.7435,-0.1595,0.1183,-1.1038,9.185,1.8123,0.1678,0.318,-0.4765,-8.1716,4.3757,-0.2327,-0.1514,1.0899,-0.3577,-8.5839,2.5513,1.7252,-0.173068,0,1698375085.0617,54
-0.0342,0.2961,-0.3957,-0.1112,-0.7383,-0.1211,0.1811,-1.1436,9.217,1.6541,0.1794,0.4111,-0.4669,-8.1771,4.3664,-0.2174,-0.1755,1.0654,-0.3721,-8.5712,2.5196,1.7366,-0.144157,0,1698375085.0717,54
-0.031,0.2797,-0.3957,-0.0986,-0.7274,-0.1006,0.1966,-1.1745,9.1274,1.5895,0.1944,0.5056,-0.4552,-8.1903,4.3495,-0.1966,-0.2027,1.0933,-0.4011,-8.546,2.4874,1.7696,-0.127694,0,1698375085.0819,55
-0.0272,0.294,-0.3955,-0.0684,-0.6832,-0.0864,0.1831,-1.1528,8.9248,1.5735,0.2214,0.5799,-0.4538,-8.2173,4.3155,-0.1883,-0.2367,1.1251,-0.4305,-8.5447,2.4379,1.8099,-0.121457,0,1698375085.092,56
-0.0232,0.3104,-0.395,-0.0162,-0.6412,-0.0669,0.1708,-1.1411,8.8379,1.4544,0.2705,0.6316,-0.4586,-8.2608,4.2672,-0.1735,-0.2681,1.1874,-0.4584,-8.5463,2.3746,1.8348,-0.130827,0,1698375085.1026,57
-0.0198,0.2999,-0.3947,-0.0034,-0.5727,-0.0662,0.1878,-1.1544,8.86,1.3582,0.324,0.6547,-0.4777,-8.3098,4.2214,-0.1658,-0.2994,1.3789,-0.4971,-8.5561,2.3078,1.8314,-0.150966,0,1698375085.1131,57
-0.0168,0.2843,-0.3944,0.008,-0.4446,-0.1407,0.1984,-1.1792,8.8977,1.3382,0.3672,0.6446,-0.5139,-8.3574,4.1757,-0.1745,-0.3194,1.6052,-0.557,-8.5656,2.2446,1.8429,-0.189427,0,1698375085.1231,58
-0.0141,0.28,-0.3933,0.0421,-0.3766,-0.2471,0.1955,-1.2,9.0024,1.3102,0.3991,0.5975,-0.5735,-8.3942,4.1319,-0.1839,-0.2651,1.6139,-0.6308,-8.5677,2.1825,1.8428,-0.253373,0,1698375085.1344,59
-0.0107,0.2924,-0.3905,0.0953,-0.3767,-0.412,0.2691,-1.3678,8.8127,1.1835,0.4223,0.3939,-0.7391,-8.4786,4.0877,-0.198,-0.0059,1.1859,-0.8023,-8.6419,2.1342,1.8256,-0.339709,0,1698375085.1461,60
-0.0065,0.3058,-0.3858,0.177,-0.3878,-0.4493,0.3152,-1.4125,8.8497,1.0211,0.4564,0.2477,-0.8191,-8.5377,4.0705,-0.2003,0.0909,0.938,-0.8887,-8.7082,2.1649,1.8588,-0.448408,0,1698375085.1569,60
-0.0021,0.3386,-0.3806,0.2468,-0.3725,-0.4911,0.3604,-1.4115,9.0322,0.892,0.5237,0.0907,-0.883,-8.5997,4.0929,-0.1834,0.1431,0.7327,-0.9668,-8.7767,2.2128,1.8928,-0.557458,0,1698375085.1674,61
0.0026,0.3984,-0.3747,0.3325,-0.272,-0.6113,0.4024,-1.4248,9.0858,0.8791,0.599,-0.0467,-0.9224,-8.65,4.1507,-0.1694,0.1564,0.5885,-1.0352,-8.85,2.2711,1.9056,-0.646671,0,1698375085.1783,62
0.0076,0.4482,-0.368,0.3987,-0.1676,-0.7226,0.4179,-1.4002,9.0402,0.926,0.661,-0.1712,-0.9522,-8.6883,4.2237,-0.1607,0.1624,0.4476,-1.0892,-8.9118,2.3294,1.9107,-0.716833,0,1698375085.1881,63
0.013,0.4719,-0.3612,0.4215,-0.0361,-0.7962,0.4018,-1.2765,9.0834,0.929,0.7022,-0.2756,-0.9753,-8.7105,4.3049,-0.1513,0.168,0.281,-1.1387,-8.9704,2.3825,1.9358,-0.763278,0,1698375085.1981,63
0.0188,0.49,-0.3546,0.4721,0.1759,-0.8866,0.3714,-1.1901,9.0641,0.9271,0.7258,-0.3533,-0.9847,-8.7326,4.3678,-0.1237,0.1757,0.075,-1.1875,-9.0312,2.4187,1.9721,-0.75406,0,1698375085.2087,64
0.0248,0.5073,-0.3476,0.5456,0.3303,-0.9373,0.3078,-1.1291,9.1765,0.8634,0.7628,-0.4179,-0.9818,-8.7623,4.4024,-0.0891,0.2013,-0.1703,-1.227,-9.0833,2.434,1.9896,-0.663487,0,1698375085.2206,65
0.0314,0.5219,-0.3403,0.5796,0.4102,-0.9604,0.2192,-1.1341,9.3694,0.7446,0.8222,-0.4834,-0.9753,-8.7958,4.4205,-0.0382,0.2638,-0.4443,-1.2552,-9.1218,2.4068,1.9899,-0.531056,0,1698375085.2309,65
0.0382,0.5492,-0.3332,0.5767,0.5132,-1.0023,0.1256,-1.2332,9.2637,0.7636,0.8778,-0.5582,-0.9796,-8.8451,4.4148,0.0176,0.3583,-0.7364,-1.2592,-9.1453,2.3435,2.0139,-0.416555,0,1698375085.2415,66
0.0444,0.5679,-0.3261,0.5709,0.5847,-1.0629,0.0154,-1.2914,9.3121,0.755,0.9243,-0.6393,-0.9991,-8.9018,4.3767,0.0642,0.4548,-1.063,-1.258,-9.174,2.275,2.0587,-0.335601,0,1698375085.2522,67
0.0503,0.5872,-0.3191,0.5746,0.6393,-1.1449,-0.0982,-1.4083,9.4999,0.7334,0.9528,-0.7099,-1.0339,-8.9688,4.3369,0.125,0.4982,-1.4471,-1.2435,-9.2447,2.2155,2.1363,-0.273842,0,1698375085.2621,68
0.0562,0.5991,-0.3114,0.6469,0.686,-1.1865,-0.2121,-1.6043,9.531,0.8177,0.9468,-0.7656,-1.0873,-9.0615,4.3303,0.1642,0.5089,-1.9508,-1.2126,-9.3765,2.1628,2.2476,-0.218357,0,1698375085.2719,68
0.0611,0.5784,-0.3025,0.7205,0.7189,-1.2008,-0.3483,-1.6465,9.8215,0.935,0.8996,-0.7936,-1.1305,-9.1896,4.3372,0.1484,0.5103,-2.4877,-1.1895,-9.5474,2.1074,2.326,-0.163256,0,1698375085.2819,69
0.0653,0.5597,-0.2925,0.7623,0.7146,-1.1992,-0.5009,-1.5315,10.2042,1.1629,0.8049,-0.7974,-1.1343,-9.3586,4.3405,0.0989,0.4459,-2.8017,-1.1919,-9.7199,2.065,2.3589,-0.116368,0,1698375085.2922,70
0.0694,0.537,-0.2816,0.8247,0.6431,-1.1511,-0.6698,-1.3323,10.6758,1.4672,0.7365,-0.8651,-1.1048,-9.5789,4.3259,0.0298,0.3489,-2.9194,-1.2433,-9.8879,2.0296,2.3521,-0.115142,0,1698375085.3022,71
0.0729,0.4829,-0.2702,0.8848,0.6012,-1.0277,-0.829,-1.0941,11.0693,1.7955,0.7831,-1.0268,-1.0699,-9.8166,4.2825,-0.0586,0.2984,-3.137,-1.3411,-10.0795,1.9735,2.3123,-0.166968,0,1698375085.3118,71
0.0749,0.3967,-0.2594,0.9307,0.5797,-0.8628,-0.963,-0.7983,11.4709,2.1467,0.8985,-1.2078,-1.0412,-10.0404,4.2389,-0.1701,0.2974,-3.484,-1.4529,-10.2976,1.9078,2.2389,-0.212707,0,1698375085.3218,72
0.0752,0.3081,-0.2505,0.9005,0.6142,-0.7364,-1.1079,-0.5278,11.9095,2.4842,0.9344,-1.3245,-1.0188,-10.2208,4.22,-0.3208,0.2822,-3.665,-1.5619,-10.4694,1.8567,2.1741,-0.222772,0,1698375085.3324,73
0.0749,0.2361,-0.244,0.8165,0.5259,-0.4967,-1.2656,-0.2336,12.0482,2.7516,0.8397,-1.3333,-1.0092,-10.318,4.2034,-0.5071,0.209,-3.4681,-1.6508,-10.5435,1.8125,2.1313,-0.216041,0,1698375085.3428,74
0.0748,0.1809,-0.24,0.7091,0.4241,-0.2731,-1.3771,0.0091,11.9519,2.9738,0.726,-1.2192,-1.005,-10.288,4.1585,-0.7074,0.0985,-2.9232,-1.7071,-10.5396,1.7715,2.0708,-0.199296,0,1698375085.3529,74
0.0744,0.1337,-0.2378,0.5912,0.4558,-0.2,-1.4065,-0.1022,11.4263,3.1483,0.6888,-0.9439,-1.0002,-10.1463,4.0763,-0.9164,0.0288,-2.1744,-1.7337,-10.485,1.7257,1.9792,-0.183578,0,1698375085.3634,75
0.0726,0.0394,-0.2362,0.5255,0.5588,-0.1398,-1.3297,-0.5041,10.5302,3.0793,0.758,-0.5946,-0.975,-9.9889,3.9208,-1.1365,0.0335,-1.3567,-1.7084,-10.3696,1.6645,1.8516,-0.17834,0,1698375085.3744,76
0.0677,-0.09,-0.2329,0.5336,0.5705,0.1826,-0.6675,-1.8086,10.3108,2.6378,1.1005,-0.0156,-1.0303,-9.6835,3.5294,-1.4876,0.2134,0.2375,-1.5195,-10.0964,1.3785,1.5876,-0.180462,0,1698375085.3862,76
0.0577,-0.3062,-0.2259,0.604,0.3693,0.321,-0.2256,-2.1876,10.406,2.33,1.2959,0.1478,-1.0837,-9.5201,3.3281,-1.5679,0.3882,0.9112,-1.421,-9.917,1.2096,1.4851,-0.274821,0,1698375085.3962,77
0.0432,-0.6193,-0.2154,0.7303,0.2871,0.1976,0.2053,-2.2083,10.2204,2.2876,1.4647,0.1571,-1.1286,-9.3125,3.133,-1.5811,0.6084,1.3834,-1.3283,-9.6978,1.0661,1.4059,-0.436371,0,1698375085.4067,78
0.026,-0.927,-0.2028,0.8739,0.4389,-0.1437,0.5972,-2.2528,9.7593,2.4429,1.583,0.0825,-1.1319,-9.0612,2.9687,-1.5103,0.8569,1.6692,-1.2376,-9.4647,0.9632,1.3427,-0.562191,0,1698375085.4173,79
0.007,-1.1525,-0.1908,0.9317,0.5593,-0.4437,0.9212,-2.1325,9.5233,2.563,1.6613,-0.0198,-1.0782,-8.77,2.8106,-1.3963,1.0969,1.8289,-1.1552,-9.2213,0.9189,1.3179,-0.659791,0,1698375085.4275,79
-0.0126,-1.3078,-0.1807,0.9111,0.7236,-0.7288,1.1967,-2.0218,9.2462,2.7441,1.7519,-0.2824,-0.9564,-8.4672,2.6621,-1.3101,1.3207,1.7988,-1.0801,-8.9693,0.9103,1.3289,-0.730763,0,1698375085.4386,80
-0.0336,-1.4792,-0.1718,0.8793,0.6867,-0.9314,1.4013,-1.7695,9.1766,2.9071,1.9518,-0.489,-0.78,-8.1592,2.5411,-1.2998,1.5568,1.6527,-1.0056,-8.7026,0.8868,1.3099,-0.747695,0,1698375085.4507,81
-0.0579,-1.6972,-0.1641,0.8485,0.3777,-1.0939,1.5278,-1.3912,9.1447,3.0566,2.2648,-0.4594,-0.574,-7.8717,2.433,-1.333,1.828,1.5545,-0.9503,-8.4167,0.8093,1.2433,-0.669029,0,1698375085.4607,82
-0.0832,-1.9195,-0.157,0.8031,0.188,-1.3079,1.5741,-1.0109,8.9823,3.2107,2.6416,-0.4551,-0.3739,-7.6272,2.3213,-1.3762,2.1204,1.5183,-0.9115,-8.1596,0.6993,1.1335,-0.476223,0,1698375085.4713,82
-0.1085,-2.1355,-0.1507,0.7457,0.2221,-1.527,1.5155,-0.5844,9.0269,3.1588,3.0034,-0.5013,-0.2099,-7.4365,2.2056,-1.4214,2.4003,1.549,-0.8534,-7.9901,0.5898,0.9695,-0.224825,0,1698375085.4813,83
-0.1349,-2.29,-0.1443,0.7108,0.1293,-1.6375,1.3711,-0.1722,9.0571,3.0207,3.2341,-0.5899,-0.0911,-7.3528,2.1056,-1.4515,2.6493,1.6419,-0.7596,-7.9496,0.4591,0.7621,0.013967,0,1698375085.491,84
-0.1611,-2.3346,-0.1375,0.698,0.0325,-1.6901,1.1286,0.2652,9.154,2.8872,3.242,-0.6358,-0.0039,-7.4508,2.0477,-1.4428,2.8862,1.7293,-0.6501,-8.0541,0.3193,0.5657,0.220674,0,1698375085.5009,85
-0.1873,-2.3433,-0.1315,0.6574,0.0315,-1.7275,0.8303,0.6665,9.2642,2.8404,3.0751,-0.7388,0.0297,-7.6988,2.0228,-1.4096,3.0889,1.776,-0.554,-8.2554,0.214,0.4295,0.389768,0,1698375085.5113,85
-0.2142,-2.3858,-0.1266,0.6029,0.0486,-1.5682,0.5594,1.0408,9.2171,2.8514,2.7887,-0.9286,0.0251,-8.0457,2.0101,-1.3672,3.2046,1.767,-0.493,-8.5122,0.1343,0.3465,0.524726,0,1698375085.5219,86
-0.2407,-2.4478,-0.1216,0.5695,-0.0489,-1.3644,0.32,1.2537,9.2325,2.9476,2.4206,-1.1835,0.0028,-8.4661,2.0344,-1.3087,3.1914,1.7431,-0.4882,-8.8225,0.0938,0.3234,0.630715,0,1698375085.5321,87
-0.2652,-2.3838,-0.1171,0.5331,-0.1349,-1.2462,0.1213,1.325,9.4135,3.114,2.0102,-1.4684,-0.0315,-8.9225,2.1052,-1.2298,3.0822,1.7133,-0.5595,-9.19,0.0957,0.3792,0.713155,0,1698375085.5418,88
-0.2868,-2.2678,-0.1138,0.4987,-0.113,-1.0615,0.0283,1.4215,9.558,3.119,1.5951,-1.5448,-0.0591,-9.3888,2.2136,-1.1589,2.9736,1.6127,-0.7231,-9.5482,0.133,0.4744,0.777193,0,1698375085.552,88
-0.306,-2.2171,-0.1109,0.4732,-0.108,-0.8634,0.0745,1.3669,9.584,3.0076,1.2949,-1.4653,-0.1188,-9.7833,2.3601,-1.1407,2.9148,1.4008,-0.9225,-9.8595,0.2179,0.5756,0.826932,0,1698375085.5628,89
-0.3244,-2.1023,-0.1076,0.4492,-0.0538,-0.6653,0.2782,1.0392,9.3786,2.9212,1.1656,-1.2969,-0.1891,-10.0766,2.5282,-1.138,2.8674,1.1484,-1.0749,-10.111,0.3487,0.6746,0.865564,0,1698375085.5734,90
-0.3417,-1.9647,-0.1029,0.4464,-0.0398,-0.3896,0.6061,0.7487,9.2885,2.7564,1.2144,-1.0597,-0.2556,-10.2258,2.6812,-1.1346,2.7675,1.0103,-1.1533,-10.2453,0.5121,0.7452,0.895548,0,1698375085.5837,90
-0.3564,-1.8666,-0.0981,0.4439,0.058,-0.1549,0.9537,0.6224,9.346,2.5331,1.3767,-0.826,-0.3115,-10.2202,2.8232,-1.1283,2.5408,1.0837,-1.1451,-10.2738,0.6842,0.8012,0.918793,0,1698375085.5938,91
-0.3692,-1.7576,-0.0939,0.4346,0.5653,0.1282,1.5406,0.3427,9.3274,2.3271,1.7604,-0.4602,-0.3302,-9.8568,2.94,-0.9833,1.7742,1.4461,-0.9293,-10.1238,0.9809,0.8644,0.936825,0,1698375085.6061,92
-0.3818,-1.6499,-0.0894,0.4485,0.7632,0.3197,1.7801,0.3424,9.3503,2.2354,1.8621,-0.2163,-0.3055,-9.5743,2.9861,-0.8538,1.3867,1.4955,-0.8007,-9.9862,1.0753,0.8767,0.95085,0,1698375085.6169,93
-0.3933,-1.5449,-0.0838,0.4746,0.726,0.5025,1.9456,0.4255,9.3777,2.1701,1.9113,0.0916,-0.248,-9.257,3.0066,-0.7081,1.1248,1.3038,-0.6565,-9.7884,1.1219,0.8862,0.961402,0,1698375085.6274,93
-0.4034,-1.4149,-0.0776,0.489,0.7167,0.6308,2.0273,0.5088,9.5824,2.0611,1.9163,0.312,-0.1556,-8.9438,2.9958,-0.5599,0.9462,1.1224,-0.5155,-9.5631,1.1426,0.9326,0.968606,0,1698375085.6384,94
-0.413,-1.2957,-0.0717,0.5,0.7223,0.7544,2.0533,0.5879,9.6708,1.9737,1.8426,0.4346,-0.0345,-8.6471,2.9698,-0.4335,0.8389,0.9714,-0.377,-9.3713,1.1431,0.97,0.973475,0,1698375085.6483,95
-0.4218,-1.2171,-0.0656,0.5124,0.6993,0.8853,2.0215,0.6953,9.5467,1.9941,1.7087,0.5528,0.0972,-8.3914,2.9475,-0.3285,0.7846,0.8464,-0.2268,-9.1908,1.1393,0.9833,0.977659,0,1698375085.6606,96
-0.43,-1.1225,-0.0589,0.5213,0.6534,0.9768,1.9371,0.7237,9.4977,2.0091,1.5356,0.5347,0.1892,-8.1961,2.9529,-0.2559,0.7186,0.7646,-0.0641,-9.0238,1.1382,1.0123,0.980752,0,1698375085.6713,96
-0.4374,-1.031,-0.0526,0.5466,0.6262,1.0981,1.8281,0.7326,9.4671,1.9448,1.2819,0.3878,0.2828,-8.0537,2.9594,-0.1958,0.6298,0.7079,0.104,-8.872,1.1269,1.0325,0.981476,0,1698375085.6818,97
-0.4434,-0.9403,-0.0471,0.5764,0.4577,1.3218,1.7043,0.8398,9.5537,1.8051,0.9707,0.2821,0.3802,-7.9707,2.9432,-0.1139,0.5242,0.727,0.2584,-8.7375,1.1179,1.0208,0.969315,0,1698375085.6919,98
-0.4478,-0.8214,-0.0416,0.5868,0.2586,1.5289,1.5569,0.949,9.5758,1.7463,0.6999,0.1481,0.4431,-7.9628,2.9268,-0.0505,0.4132,0.7724,0.3962,-8.6447,1.1053,1.0156,0.871822,0,1698375085.7021,99
-0.45,-0.67,-0.0367,0.5818,0.1074,1.7152,1.376,1.0223,9.5614,1.7108,0.4828,0.0329,0.5099,-8.0193,2.909,-0.004,0.3133,0.8239,0.5135,-8.6005,1.0898,1.0237,0.643857,0,1698375085.7118,99
-0.4504,-0.5001,-0.0321,0.5692,-0.0373,1.9018,1.1946,1.0586,9.566,1.7179,0.3116,0.0175,0.589,-8.1168,2.8973,0.0287,0.2195,0.9074,0.6046,-8.5929,1.0517,1.0245,0.342267,0,1698375085.7225,0
-0.4502,-0.3665,-0.0268,0.5673,-0.1165,2.0935,1.0597,1.085,9.5084,1.6869,0.1931,0.0269,0.6734,-8.2557,2.8887,0.014,0.1203,1.0421,0.6788,-8.6102,0.9672,1.0291,0.051423,0,1698375085.7328,1
-0.4496,-0.2688,-0.0213,0.5503,-0.172,2.2638,0.914,1.0657,9.395,1.5663,0.0781,0.0956,0.7408,-8.3953,2.869,-0.0214,0.0424,1.1382,0.7288,-8.6547,0.8599,1.0519,-0.182811,0,1698375085.7433,2
-0.4491,-0.202,-0.0168,0.5134,-0.274,2.4054,0.73,1.0089,9.3996,1.413,-0.0488,0.1753,0.7717,-8.5041,2.8368,-0.0642,-0.002,1.1558,0.7488,-8.6943,0.7504,1.0597,-0.365143,0,1698375085.7527,2
-0.4489,-0.1462,-0.0129,0.4947,-0.4741,2.5298,0.5267,0.8564,9.5093,1.2942,-0.201,0.2091,0.7447,-8.5923,2.8094,-0.1164,-0.0305,1.1268,0.755,-8.7419,0.6584,1.0573,-0.506793,0,1698375085.7627,3
-0.4483,-0.0649,-0.0089,0.4861,-0.6271,2.5814,0.3372,0.6221,9.4168,1.3358,-0.4027,0.203,0.6614,-8.6857,2.7858,-0.1316,-0.0551,1.1137,0.7658,-8.8107,0.6019,1.0898,-0.616541,0,1698375085.7727,4
-0.4462,0.0237,-0.0049,0.4772,-0.7714,2.6921,0.1278,0.4546,9.1086,1.5764,-0.6208,0.1719,0.555,-8.7769,2.7428,-0.1105,-0.093,1.1435,0.7852,-8.8818,0.5516,1.1531,-0.688785,0,1698375085.7828,5
-0.4422,0.1171,-0.0013,0.4553,-0.8963,2.6801,-0.097,0.2628,9.0042,1.6817,-0.8293,0.1391,0.4459,-8.848,2.6931,-0.0778,-0.1515,1.1974,0.808,-8.9431,0.4992,1.2209,-0.679601,0,1698375085.7934,5
-0.4365,0.2198,0.0018,0.4264,-0.8519,2.4194,-0.3032,-0.0193,8.9381,1.5898,-1.0246,0.1111,0.3484,-8.9156,2.647,-0.0252,-0.2386,1.2222,0.8393,-9.0049,0.4616,1.3056,-0.681699,0,1698375085.8029,6
-0.4298,0.3321,0.0055,0.444,-0.8566,2.1573,-0.5017,-0.2197,8.8333,1.4831,-1.1805,0.0417,0.2727,-8.9908,2.6005,0.0288,-0.3378,1.1605,0.8747,-9.0805,0.4314,1.3971,-0.74201,0,1698375085.8142,7
-0.422,0.4269,0.011,0.5089,-0.8483,1.9409,-0.6329,-0.3634,8.834,1.3348,-1.2786,-0.0591,0.2318,-9.0727,2.5537,0.07,-0.4225,1.0563,0.8963,-9.168,0.4125,1.4727,-0.771033,0,1698375085.8243,8
-0.4143,0.4793,0.0178,0.5748,-0.7524,1.7302,-0.7152,-0.4587,8.8578,1.2137,-1.3079,-0.1417,0.2324,-9.1473,2.5152,0.0837,-0.4705,0.8663,0.8951,-9.255,0.4104,1.5419,-0.772726,0,1698375085.8336,9
-0.407,0.5174,0.0247,0.6163,-0.6063,1.4984,-0.7799,-0.3603,8.826,1.1698,-1.2719,-0.1803,0.2593,-9.2119,2.5006,0.0763,-0.4847,0.602,0.8755,-9.3201,0.4271,1.6015,-0.773153,0,1698375085.8441,9
-0.3998,0.5798,0.032,0.6234,-0.2759,1.0994,-0.8441,0.0206,8.9741,1.1559,-1.1493,-0.2686,0.3424,-9.2283,2.5801,0.0648,-0.5113,-0.0011,0.8631,-9.3806,0.5389,1.6566,-0.78818,0,1698375085.8551,10
-0.392,0.6572,0.0391,0.6221,-0.2759,1.0994,-0.8441,0.0206,8.9741,1.1559,-1.1493,-0.2686,0.3424,-9.2283,2.5801,0.0648,-0.5113,-0.0011,0.8631,-9.3806,0.5389,1.6566,-0.814312,0,1698375085.8649,11
-0.3835,0.7,0.046,0.6336,0.0828,0.9029,-0.7666,0.1788,8.9678,1.2144,-1.1673,-0.3845,0.4449,-9.1324,2.7737,0.05,-0.65,-0.3182,0.8746,-9.3517,0.7812,1.6297,-0.844075,0,1698375085.8764,12
-0.3742,0.7576,0.0529,0.62,0.264,0.8916,-0.7074,0.3255,8.9128,1.2838,-1.2394,-0.3962,0.5027,-9.0774,2.9018,0.0765,-0.7613,-0.3888,0.9183,-9.3493,0.9167,1.5847,-0.873482,0,1698375085.8864,13
-0.3642,0.8241,0.0591,0.5816,0.4166,0.9391,-0.635,0.5423,8.885,1.2951,-1.3405,-0.4214,0.569,-9.0333,3.0272,0.0843,-0.9006,-0.3856,0.9847,-9.3391,1.0436,1.5385,-0.898574,0,1698375085.8962,13
-0.3538,0.8778,0.0646,0.56,0.5301,1.0142,-0.5472,0.7433,8.8271,1.2876,-1.4966,-0.475,0.6468,-8.9921,3.1471,0.0898,-1.0736,-0.3346,1.0728,-9.3248,1.1612,1.5013,-0.918721,0,1698375085.9067,14
-0.3428,0.9444,0.0704,0.567,0.6447,1.0778,-0.439,0.8096,8.7947,1.2898,-1.6716,-0.5304,0.7422,-8.9473,3.2386,0.0981,-1.2838,-0.272,1.1763,-9.33,1.2605,1.4799,-0.934973,0,1698375085.9175,15
-0.3319,0.9554,0.0762,0.5478,0.7106,1.1603,-0.3208,0.8028,8.9312,1.2149,-1.804,-0.5648,0.8547,-8.9157,3.2875,0.0855,-1.5255,-0.1987,1.2907,-9.3584,1.3467,1.4873,-0.947939,0,1698375085.9284,16
-0.3223,0.9013,0.0815,0.5077,0.7585,1.233,-0.1839,0.7508,9.1596,1.1171,-1.8711,-0.6095,0.9753,-8.9224,3.304,0.0667,-1.7737,-0.1689,1.4111,-9.4266,1.3888,1.5163,-0.957231,0,1698375085.9407,16
-0.3145,0.8278,0.0874,0.5034,0.8399,1.2477,-0.0324,0.6422,9.2986,1.0275,-1.8551,-0.6885,1.0979,-8.9814,3.2811,0.0596,-1.9844,-0.2601,1.5166,-9.5096,1.3686,1.5528,-0.961001,0,1698375085.9509,17
-0.3093,0.7461,0.0935,0.5089,0.9586,1.2216,0.0973,0.5111,9.3661,0.9555,-1.748,-0.818,1.211,-9.1023,3.2336,0.0709,-2.1429,-0.4612,1.5985,-9.5959,1.3054,1.6129,-0.955419,0,1698375085.9617,18
-0.307,0.6118,0.0984,0.4935,1.0797,1.1919,0.1937,0.428,9.4737,0.9078,-1.6248,-0.9928,1.2972,-9.2873,3.2096,0.0887,-2.2737,-0.6933,1.6587,-9.744,1.2223,1.6823,-0.931025,0,1698375085.9718,19
-0.307,0.4795,0.1028,0.4728,1.1551,1.1212,0.2745,0.3605,9.6866,0.9048,-1.5973,-1.2018,1.3497,-9.5243,3.2471,0.0911,-2.371,-1.0031,1.6867,-9.9589,1.1412,1.7113,-0.852154,0,1698375085.9819,20
-0.3067,0.4078,0.107,0.4591,1.3057,0.6904,0.3979,-0.0271,10.503,0.7973,-1.7054,-1.4502,1.3845,-9.7784,3.3264,0.1098,-2.3972,-1.3605,1.6829,-10.1716,1.1036,1.7296,-0.673124,0,1698375085.9919,20
-0.3044,0.3797,0.1108,0.4222,1.5615,0.2792,0.5524,-0.7213,11.6375,0.5132,-1.9062,-1.6994,1.4064,-10.0175,3.4289,0.1133,-2.3392,-1.6406,1.622,-10.3387,1.1163,1.7599,-0.462833,0,1698375086.0021,21
-0.3001,0.4004,0.1127,0.3314,1.4654,0.1404,0.6086,-1.2864,12.3054,0.3777,-2.086,-1.9006,1.4106,-10.2355,3.5377,0.0771,-2.1517,-1.9733,1.5065,-10.4789,1.1457,1.8042,-0.302167,0,1698375086.0122,22
-0.2936,0.4666,0.1127,0.2363,1.1674,-0.0637,0.5764,-1.4763,12.3004,0.5323,-2.1574,-2.0493,1.3994,-10.453,3.6545,0.0339,-1.869,-2.4703,1.3862,-10.6233,1.1945,1.8541,-0.180659,0,1698375086.0222,23
-0.2874,0.4908,0.1124,0.1934,1.1141,-0.2538,0.5513,-1.3773,12.0078,0.7406,-2.1098,-2.1323,1.3668,-10.6551,3.7794,-0.0017,-1.5778,-2.9867,1.2748,-10.7975,1.2297,1.9063,-0.089636,0,1698375086.0317,23
-0.2839,0.4394,0.1122,0.143,1.1665,-0.4747,0.5362,-1.2069,11.9352,0.9392,-1.9834,-2.0477,1.3125,-10.8358,3.8647,-0.0339,-1.3337,-3.3451,1.1635,-10.9777,1.2603,1.9529,-0.022457,0,1698375086.0422,24
-0.2827,0.3631,0.1119,0.0768,1.1858,-0.7094,0.4843,-0.9869,12.0601,1.1919,-1.7804,-1.9292,1.2312,-11,3.9264,-0.1097,-1.1509,-3.5171,1.0516,-11.0877,1.3268,1.9502,0.027113,0,1698375086.0518,25
-0.2819,0.3084,0.1112,0.0153,1.2238,-0.9871,0.421,-0.8401,12.4201,1.3133,-1.5843,-1.8857,1.1109,-11.0986,3.9907,-0.2149,-0.9919,-3.5884,0.962,-11.1438,1.3867,1.8828,0.063966,0,1698375086.0622,26
-0.2787,0.3402,0.1084,-0.0954,1.6113,-1.2548,0.3267,-0.8928,12.3413,1.65,-1.478,-1.8476,0.9672,-11.1148,4.0424,-0.2848,-0.8275,-3.6881,0.8968,-11.1694,1.4279,1.7767,0.090731,0,1698375086.0729,27
-0.2717,0.4403,0.1021,-0.277,1.7188,-1.1738,0.1452,-0.6838,11.7873,1.9281,-1.4023,-1.8998,0.8445,-11.0633,4.0695,-0.2803,-0.6018,-3.9565,0.8188,-11.0859,1.496,1.6591,0.108606,0,1698375086.0831,27
-0.2609,0.5803,0.0914,-0.5527,1.4359,-0.9609,-0.1398,-0.2834,11.5879,1.9538,-1.3154,-1.9413,0.7526,-10.8976,4.059,-0.2142,-0.3881,-4.2783,0.7455,-10.8922,1.5783,1.5474,0.118883,0,1698375086.0931,28
-0.2477,0.7504,0.0766,-0.8445,1.378,-0.8475,-0.448,-0.0702,11.2966,2.2654,-1.1908,-1.9453,0.654,-10.623,4.0437,-0.129,-0.292,-4.4131,0.6757,-10.6228,1.6748,1.4392,0.123632,0,1698375086.1028,29
-0.2339,0.9332,0.0595,-1.0392,1.1064,-0.5916,-0.6619,0.0901,11.0793,2.5497,-1.1085,-1.9579,0.533,-10.2437,4.0734,-0.0301,-0.3904,-4.2699,0.6147,-10.2823,1.8081,1.3376,0.126085,0,1698375086.1133,30
-0.2202,1.037,0.0398,-1.2069,0.783,-0.2999,-0.7505,0.0684,11.0181,2.764,-1.1442,-1.9173,0.4118,-9.7564,4.1134,0.0584,-0.6764,-3.9099,0.5776,-9.8858,1.9471,1.2431,0.129591,0,1698375086.1238,30
-0.2074,1.0259,0.0182,-1.387,0.6314,-0.0896,-0.746,-0.1121,10.6521,3.0409,-1.2291,-1.7921,0.3117,-9.1906,4.1081,0.11,-1.0009,-3.4154,0.5453,-9.4162,2.0773,1.1166,0.136043,0,1698375086.1338,31
-0.1962,0.9858,-0.0045,-1.6412,0.3492,0.1633,-0.7135,-0.2234,10.4912,3.0841,-1.3121,-1.544,0.2348,-8.5904,4.0909,0.1125,-1.3347,-2.6002,0.5441,-8.9084,2.1765,0.9742,0.146684,0,1698375086.1436,32
-0.1858,0.9667,-0.0293,-1.8901,0.038,0.3742,-0.6381,-0.4498,10.5053,3.014,-1.4047,-1.1698,0.1879,-8.0198,4.0775,0.0416,-1.6476,-1.5698,0.6088,-8.4351,2.228,0.8235,0.162244,0,1698375086.1539,33
-0.1755,0.9564,-0.0558,-2.0065,-0.2804,0.5295,-0.5232,-0.7837,10.1091,3.0998,-1.5115,-0.747,0.1378,-7.5062,4.0473,-0.0898,-1.8575,-0.6673,0.7391,-8.0421,2.2505,0.687,0.179455,0,1698375086.1644,34
-0.1651,0.9297,-0.0845,-2.0942,-0.9703,0.7189,-0.1999,-1.0401,9.1642,3.0898,-1.8747,0.3194,0.0246,-6.8326,3.9397,-0.4641,-2.0038,0.4298,1.1003,-7.5426,2.2509,0.5603,0.195118,0,1698375086.1751,34
-0.1552,0.9018,-0.1138,-2.2238,-1.1991,0.741,-0.0355,-1.2147,8.8248,3.0665,-2.0224,0.9091,-0.0027,-6.6843,3.8823,-0.6369,-2.0191,0.5655,1.2564,-7.4307,2.2577,0.5549,0.208225,0,1698375086.1853,35
-0.1463,0.8595,-0.141,-2.3587,-1.3308,0.6636,0.0778,-1.5034,8.7322,2.9853,-2.0774,1.3407,0.0094,-6.6905,3.826,-0.7612,-1.9892,0.4109,1.3103,-7.4498,2.2557,0.5943,0.21763,0,1698375086.1951,36
-0.1388,0.8074,-0.1668,-2.4298,-1.4467,0.4986,0.1198,-1.7229,8.6678,2.9156,-2.0681,1.5941,0.0315,-6.8354,3.7974,-0.8374,-1.8714,0.0532,1.2874,-7.5997,2.2659,0.6811,0.223532,0,1698375086.205,37
-0.1323,0.7771,-0.1905,-2.4421,-1.4098,0.2264,0.0851,-2.015,8.684,2.8018,-2.0686,1.8599,0.0598,-7.1136,3.7771,-0.891,-1.641,-0.3833,1.2271,-7.854,2.2741,0.8214,0.226728,0,1698375086.2152,38
-0.1262,0.7717,-0.2118,-2.4205,-1.2618,-0.0685,-0.0484,-2.4171,8.5726,2.6421,-2.0323,2.121,0.1542,-7.4711,3.7942,-0.892,-1.3334,-0.6873,1.1205,-8.1462,2.2995,0.9929,0.226974,0,1698375086.2257,38
-0.1199,0.7674,-0.232,-2.3509,-1.1204,-0.3086,-0.3123,-2.5168,8.7216,2.4932,-1.8644,2.3322,0.3408,-7.8084,3.8313,-0.8657,-1.0177,-0.6934,0.9858,-8.3985,2.3547,1.1134,0.224523,0,1698375086.2365,39
-0.1131,0.7567,-0.2512,-2.2251,-0.6518,-0.5659,-0.6468,-2.4918,8.9562,2.4085,-1.6018,2.4205,0.5156,-8.13,3.8874,-0.8753,-0.7197,-0.5268,0.8402,-8.5899,2.3824,1.1767,0.215676,0,1698375086.2478,40
-0.1059,0.737,-0.2682,-2.0352,-0.0859,-0.8185,-0.9646,-2.4323,8.8666,2.3117,-1.328,2.4166,0.5969,-8.41,3.9828,-0.8972,-0.4541,-0.3914,0.7067,-8.7119,2.3726,1.2152,0.199345,0,1698375086.2591,41
-0.0989,0.6951,-0.2833,-1.821,0.173,-0.9994,-1.2575,-2.16,8.2074,2.2034,-1.0054,2.3301,0.6097,-8.5911,4.0569,-0.9011,-0.2956,-0.2727,0.6013,-8.7721,2.3458,1.2242,0.182063,0,1698375086.2707,41
-0.0928,0.648,-0.2973,-1.6343,0.3937,-1.2243,-1.4858,-1.8221,7.6828,2.4125,-0.6126,2.176,0.5481,-8.647,4.0885,-0.8832,-0.2449,-0.1122,0.5237,-8.8029,2.3014,1.2398,0.150966,0,1698375086.2809,42
-0.0876,0.6197,-0.31,-1.4867,0.6725,-1.4867,-1.6239,-1.5409,7.8498,2.6489,-0.2324,2.0324,0.4346,-8.6205,4.1521,-0.8119,-0.2617,-0.0064,0.4472,-8.783,2.2662,1.2856,0.099316,0,1698375086.2913,43
-0.0827,0.6058,-0.3217,-1.4056,0.8158,-1.6522,-1.7039,-1.2316,8.1328,2.5482,0.0918,1.9405,0.2629,-8.571,4.221,-0.7081,-0.2595,-0.0162,0.4082,-8.7608,2.235,1.3575,0.042914,0,1698375086.3017,44
-0.0774,0.5783,-0.3333,-1.3642,0.8026,-1.6819,-1.7107,-0.9165,8.4193,2.2949,0.3071,1.9577,0.0972,-8.4769,4.263,-0.5965,-0.2637,0.0188,0.3848,-8.6832,2.2306,1.4497,-0.005832,0,1698375086.3121,45
-0.072,0.5409,-0.3442,-1.3033,0.7515,-1.6232,-1.6392,-0.8199,8.7179,2.038,0.3745,1.9787,-0.0307,-8.3646,4.2967,-0.5016,-0.3232,0.2471,0.341,-8.5668,2.2494,1.5387,-0.036634,0,1698375086.322,45
-0.0665,0.546,-0.3552,-1.2629,0.6053,-1.5213,-1.5224,-0.7373,8.8774,1.8676,0.2871,2.0053,-0.1393,-8.249,4.2676,-0.4254,-0.3652,0.4909,0.3173,-8.5089,2.2592,1.6322,-0.043912,0,1698375086.3329,46
-0.0602,0.5689,-0.3657,-1.2186,0.3861,-1.3527,-1.3984,-0.5291,9.0088,1.6326,0.0761,2.0481,-0.2221,-8.171,4.2129,-0.3339,-0.385,0.6248,0.4931,-8.4333,2.2812,1.7285,-0.026495,0,1698375086.3437,47
-0.0537,0.5677,-0.3753,-1.1249,0.2081,-1.1911,-1.2578,-0.4685,9.1841,1.5091,-0.1585,2.0592,-0.2769,-8.1267,4.1768,-0.239,-0.3868,0.7084,0.5837,-8.3491,2.2889,1.8186,0.008338,0,1698375086.3541,48
-0.0473,0.5686,-0.3847,-1.0734,-0.1,-0.9242,-1.0001,-0.4227,9.576,1.5365,-0.4166,1.8562,-0.3052,-8.023,4.1007,-0.0773,-0.2682,0.3829,0.2308,-8.2397,2.2603,1.982,0.042399,0,1698375086.3651,48
-0.041,0.5744,-0.3927,-1.0215,-0.2129,-0.5889,-0.8504,-0.4462,9.6083,1.5885,-0.4654,1.6562,-0.3185,-8.0112,4.0766,-0.0368,-0.1512,0.0442,0.0697,-8.2244,2.2115,2.0727,0.065657,0,1698375086.3754,49
-0.0352,0.5602,-0.3992,-0.9266,-0.3517,-0.314,-0.7154,-0.4943,9.6546,1.6016,-0.4914,1.4352,-0.3297,-8.0039,4.0774,-0.0069,-0.016,-0.2726,-0.0801,-8.2329,2.1894,2.1787,0.043379,0,1698375086.3868,50
-0.0295,0.5628,-0.4049,-0.8483,-0.5362,-0.2641,-0.6114,-0.5189,9.7025,1.5487,-0.497,1.2252,-0.3367,-7.9961,4.105,0.0195,0.118,-0.5289,-0.2084,-8.2362,2.1893,2.2637,-0.04998,0,1698375086.3974,51
-0.0236,0.5854,-0.4089,-0.7402,-0.7111,-0.1887,-0.5067,-0.5621,9.5134,1.4779,-0.4852,1.0067,-0.3523,-8.0021,4.132,0.0445,0.246,-0.7382,-0.3234,-8.2362,2.1983,2.3233,-0.153779,0,1698375086.4085,52
-0.018,0.5825,-0.4107,-0.5915,-0.8904,-0.1711,-0.4109,-0.6234,9.5095,1.4015,-0.436,0.7646,-0.3866,-8.014,4.1378,0.0672,0.3454,-0.8343,-0.4042,-8.2201,2.2013,2.3485,-0.179614,0,1698375086.4194,52
-0.0127,0.5561,-0.4111,-0.468,-0.9921,-0.1966,-0.3246,-0.755,9.5706,1.3743,-0.3586,0.5458,-0.4346,-8.0232,4.1615,0.0966,0.368,-0.8016,-0.461,-8.1886,2.2122,2.3239,-0.134936,0,1698375086.4313,53
-0.0071,0.5206,-0.4109,-0.3565,-1.1044,-0.2189,-0.249,-0.8983,9.6237,1.3347,-0.2772,0.3861,-0.5,-8.0261,4.1858,0.1295,0.3132,-0.6518,-0.5059,-8.1449,2.2436,2.2854,-0.0832,0,1698375086.4412,54
-0.0017,0.4973,-0.4107,-0.2612,-1.3101,-0.2124,-0.1554,-0.9987,9.6486,1.2588,-0.2054,0.2919,-0.5831,-8.0125,4.1961,0.1661,0.2348,-0.4263,-0.5187,-8.0875,2.2777,2.2538,-0.040694,0,1698375086.4511,55
0.0025,0.4811,-0.4104,-0.2066,-1.532,-0.204,-0.0341,-1.063,9.5779,1.1771,-0.1386,0.2341,-0.675,-7.9715,4.1996,0.2046,0.1586,-0.2,-0.5073,-8.0226,2.31,2.2317,-0.008529,0,1698375086.4606,55
0.0059,0.4637,-0.4095,-0.1427,-1.805,-0.1403,0.0883,-1.1288,9.6424,1.0663,-0.0773,0.2054,-0.7651,-7.8921,4.1943,0.2263,0.084,0.003,-0.4797,-7.971,2.3388,2.2166,0.01033,0,1698375086.471,56
0.0093,0.4537,-0.4069,-0.0566,-2.2556,0.0225,0.202,-1.0176,9.6177,0.9349,-0.0365,0.2018,-0.8419,-7.8171,4.2003,0.2348,0.0159,0.1658,-0.4558,-7.9535,2.3433,2.1844,0.012839,0,1698375086.4811,57
0.0132,0.4348,-0.4026,0.0428,-2.5894,0.0935,0.3151,-0.7738,9.3914,0.9739,-0.0398,0.2323,-0.9015,-7.7831,4.186,0.2252,-0.0268,0.2632,-0.4456,-7.9511,2.326,2.1398,-0.010164,0,1698375086.4908,58
0.0173,0.4095,-0.3973,0.1464,-2.5487,-0.0055,0.4507,-0.7879,8.9245,1.2292,-0.1011,0.29,-0.9572,-7.7971,4.1616,0.1867,-0.0336,0.2972,-0.448,-7.9759,2.3047,2.1138,-0.031489,0,1698375086.5008,59
0.0215,0.3987,-0.3902,0.254,-2.322,-0.0586,0.6097,-0.8309,8.3631,1.4278,-0.2033,0.3417,-1.009,-7.8491,4.1506,0.1391,-0.0081,0.3577,-0.466,-8.0276,2.2853,2.1074,-0.01144,0,1698375086.5108,59
0.026,0.4281,-0.3816,0.4059,-2.0615,-0.0453,0.7527,-0.8204,8.1916,1.4458,-0.3048,0.358,-1.0467,-7.9569,4.1378,0.0971,0.0338,0.4336,-0.5201,-8.1302,2.2895,2.1252,0.029114,0,1698375086.5219,60
0.0321,0.494,-0.3717,0.5771,-1.8157,-0.0179,0.8571,-0.9141,8.0792,1.371,-0.3624,0.3109,-1.0649,-8.1039,4.138,0.0743,0.0817,0.4789,-0.5928,-8.2819,2.3253,2.1625,0.062203,0,1698375086.5322,61
0.0398,0.5646,-0.3613,0.7231,-1.4339,-0.0461,0.9185,-1.1527,7.9131,1.357,-0.3466,0.2224,-1.0492,-8.2665,4.1325,0.0454,0.1155,0.6096,-0.6705,-8.4328,2.3775,2.2065,0.081745,0,1698375086.5437,62
0.0485,0.6422,-0.3498,0.8348,-1.0504,-0.1216,0.9287,-1.401,8.0013,1.2643,-0.232,0.129,-0.9969,-8.4519,4.1291,0.0153,0.1162,0.8798,-0.7565,-8.5976,2.418,2.261,0.032689,0,1698375086.5537,63
0.0574,0.6956,-0.3378,0.9265,-0.6478,-0.1897,0.9145,-1.5744,8.2909,1.1141,-0.0476,0.0274,-0.9257,-8.6405,4.1355,0.011,0.115,1.1178,-0.8326,-8.7633,2.4318,2.3185,-0.123574,0,1698375086.5641,63
0.0654,0.7084,-0.3267,1.0029,0.1321,-0.4617,0.8315,-1.7184,8.8061,0.9598,0.3426,-0.2722,-0.8216,-8.9453,4.1499,0.0649,0.1648,1.1256,-0.9618,-9.0534,2.3563,2.4436,-0.31214,0,1698375086.5749,64
0.0732,0.6842,-0.3152,1.0095,0.4608,-0.5766,0.7751,-1.6383,9.0191,1.0619,0.5155,-0.441,-0.8065,-9.0454,4.165,0.122,0.1655,0.8827,-1.0023,-9.1729,2.3067,2.5216,-0.465622,0,1698375086.5852,65
0.0799,0.6302,-0.3048,0.9572,0.4608,-0.5766,0.7751,-1.6383,9.0191,1.0619,0.5155,-0.441,-0.8065,-9.0454,4.165,0.122,0.1655,0.8827,-1.0023,-9.1729,2.3067,2.5216,-0.584862,0,1698375086.5945,66
0.0849,0.5918,-0.2964,0.8907,0.6087,-0.6121,0.6921,-1.52,9.4335,1.0718,0.6813,-0.5857,-0.8136,-9.1296,4.1891,0.1878,0.1559,0.4579,-1.0159,-9.2938,2.2574,2.6022,-0.677062,0,1698375086.6049,66
0.0891,0.5599,-0.2898,0.8114,0.7084,-0.5172,0.3931,-1.0106,10.6223,1.1929,0.8609,-0.9406,-0.8746,-9.3845,4.3529,0.3278,-0.0718,-0.5242,-0.8812,-9.804,2.2313,2.6918,-0.719701,0,1698375086.6149,67
0.0924,0.5036,-0.2859,0.7029,0.6502,-0.3461,0.161,-0.6387,11.4391,1.3114,0.6897,-1.1766,-0.8869,-9.6912,4.5533,0.3655,-0.2279,-1.055,-0.7812,-10.2544,2.2437,2.7627,-0.627238,0,1698375086.6252,68
0.0944,0.4331,-0.2847,0.5721,0.5087,-0.1007,-0.1377,-0.3224,12.2713,1.6052,0.2192,-1.4622,-0.8675,-10.1697,4.8047,0.3865,-0.3695,-1.5277,-0.7172,-10.77,2.32,2.8753,-0.482417,0,1698375086.6359,69
0.0951,0.3486,-0.2847,0.4511,0.3281,0.1836,-0.495,-0.1018,13.0361,2.0107,-0.3508,-1.7428,-0.8047,-10.6924,5.0374,0.3441,-0.5605,-1.67,-0.7305,-11.2757,2.4474,2.9787,-0.396048,0,1698375086.6466,70
0.095,0.2529,-0.2843,0.3842,0.2048,0.4582,-0.8527,-0.0342,13.4733,2.3823,-0.7577,-1.8679,-0.6826,-11.1545,5.2048,0.228,-0.7361,-1.3433,-0.8346,-11.6811,2.5875,2.9832,-0.301835,0,1698375086.6568,70
0.0947,0.1799,-0.2825,0.3596,0.0844,0.7438,-1.1833,-0.0816,13.4854,2.6188,-0.9042,-1.7443,-0.5332,-11.4846,5.2445,0.0707,-0.8248,-0.7163,-0.9487,-11.9743,2.6578,2.8474,-0.198407,0,1698375086.6666,71
0.0941,0.1241,-0.2783,0.3671,0.0419,1.0825,-1.4835,-0.0431,12.8627,2.7797,-0.879,-1.4549,-0.4615,-11.6557,5.1355,-0.1282,-0.8332,-0.1637,-1.0015,-12.0746,2.6108,2.6289,-0.157421,0,1698375086.6766,72
0.0921,0.0297,-0.272,0.4408,0.2553,1.2995,-1.6733,-0.0639,11.9392,2.974,-0.7291,-1.0937,-0.4962,-11.6673,4.9033,-0.331,-0.8329,0.2945,-0.9982,-11.9635,2.4873,2.3905,-0.252065,0,1698375086.6867,73
0.0872,-0.1535,-0.265,0.5152,0.6775,1.2635,-1.663,-0.4792,11.2183,3.161,-0.3579,-0.7076,-0.616,-11.5052,4.6113,-0.5498,-0.8301,0.8072,-0.9565,-11.7168,2.314,2.1716,-0.415218,0,1698375086.6967,73
0.0785,-0.411,-0.2571,0.6055,0.9116,1.1777,-1.4787,-1.0433,10.8316,3.102,0.1699,-0.3914,-0.7857,-11.1628,4.2903,-0.7702,-0.7742,1.2404,-0.8806,-11.3585,2.0886,1.996,-0.545602,0,1698375086.7068,74
0.066,-0.6348,-0.2481,0.7243,0.9811,1.0351,-1.188,-1.4898,10.5179,2.8731,0.6984,-0.0708,-0.8946,-10.6898,3.9205,-0.9526,-0.6576,1.4857,-0.8037,-10.9027,1.8159,1.8462,-0.647039,0,1698375086.7167,75
0.0506,-0.8165,-0.2384,0.8076,1.0759,0.7446,-0.8123,-1.9929,9.8706,2.7942,1.2417,0.2617,-0.9067,-10.1358,3.5499,-1.0789,-0.4238,1.5433,-0.7585,-10.3607,1.516,1.7446,-0.72584,0,1698375086.727,76
0.0318,-1.05,-0.2281,0.8493,1.2978,0.3877,-0.3909,-2.4316,9.4806,2.6496,1.8206,0.5361,-0.8411,-9.5093,3.1652,-1.1427,-0.0181,1.4048,-0.7473,-9.765,1.2041,1.6809,-0.787048,0,1698375086.7371,77
0.0102,-1.2724,-0.2173,0.902,1.1319,-0.0157,0.0147,-2.7052,9.2531,2.5016,2.3912,0.7962,-0.7134,-8.8425,2.7833,-1.1936,0.5468,1.0978,-0.7428,-9.148,0.9151,1.621,-0.834585,0,1698375086.7471,77
-0.013,-1.4245,-0.206,0.9618,0.6869,-0.4738,0.3818,-2.7248,8.9275,2.4653,2.9145,0.9964,-0.5572,-8.1683,2.4525,-1.2256,1.1977,0.7213,-0.7129,-8.5344,0.6655,1.5488,-0.871239,0,1698375086.7571,78
-0.0376,-1.5775,-0.1947,0.9939,0.59,-1.0248,0.6729,-2.5833,8.7724,2.3893,3.3849,1.0489,-0.4367,-7.5871,2.1405,-1.2492,1.8933,0.3351,-0.6463,-8.0086,0.423,1.4355,-0.881417,0,1698375086.7674,79
-0.0641,-1.7961,-0.1833,1.0322,0.5634,-1.6062,0.899,-2.4318,8.6063,2.3767,3.7674,1.0334,-0.2937,-7.1557,1.8524,-1.3049,2.5904,-0.1233,-0.5169,-7.6347,0.217,1.3216,-0.76671,0,1698375086.7779,80
-0.0924,-2.0762,-0.1726,1.0293,0.4327,-2.0833,0.9869,-2.0102,8.7972,2.3424,4.0635,0.827,-0.1476,-6.9182,1.6423,-1.3966,3.1276,-0.3866,-0.3679,-7.3512,0.0864,1.3034,-0.574029,0,1698375086.7876,80
-0.1204,-2.3567,-0.1632,0.9667,0.3159,-2.4863,0.923,-1.4734,9.1269,2.3368,4.2356,0.36,-0.0538,-6.9256,1.5037,-1.4573,3.4801,-0.5552,-0.2785,-7.217,-0.0263,1.2949,-0.425589,0,1698375086.7979,81
-0.1485,-2.5726,-0.1545,0.9375,0.1502,-2.7559,0.7652,-0.8831,9.2547,2.4806,4.2406,-0.2508,0.0455,-7.1268,1.431,-1.4604,3.707,-0.7748,-0.2824,-7.3157,-0.1127,1.2458,-0.293573,0,1698375086.8078,82
-0.1766,-2.7268,-0.1466,0.9427,-0.0024,-2.9107,0.554,-0.2414,9.4139,2.6221,4.1031,-0.9663,0.1482,-7.4592,1.4722,-1.4038,3.7512,-0.6276,-0.4227,-7.5845,-0.0556,1.2242,-0.149663,0,1698375086.8177,83
-0.2038,-2.8057,-0.1387,0.8972,-0.0476,-3.0267,0.3098,0.3818,9.6735,2.7351,3.8121,-1.6508,0.2731,-7.8788,1.6209,-1.2865,3.5085,0.0007,-0.702,-7.9799,0.105,1.2043,-0.006868,0,1698375086.8278,84
-0.2304,-2.8385,-0.1309,0.8415,-0.1398,-3.0376,0.0963,0.9997,9.9974,2.7525,3.4362,-2.1628,0.4315,-8.3773,1.8086,-1.1639,3.0934,0.7844,-1.0869,-8.4609,0.2459,1.161,0.132722,0,1698375086.8383,84
-0.256,-2.816,-0.1231,0.8191,-0.1961,-3.0068,0.0106,1.3017,9.9081,2.8331,3.1084,-2.4191,0.6125,-8.8964,2.0033,-1.1077,2.874,1.2397,-1.517,-8.9701,0.3499,1.0811,0.285038,0,1698375086.8481,85
-0.2794,-2.6429,-0.115,0.8287,-0.1895,-2.8789,0.048,1.3903,9.5964,2.9328,2.904,-2.4068,0.7411,-9.3853,2.2491,-1.2028,3.0931,1.1937,-1.91,-9.4121,0.4374,0.9747,0.429561,0,1698375086.858,86
-0.3006,-2.4811,-0.1072,0.8436,-0.1819,-2.6168,0.1989,1.4635,9.4096,2.8489,2.9047,-2.3121,0.7209,-9.7955,2.5176,-1.3755,3.6246,0.9986,-2.1785,-9.7089,0.5026,0.8602,0.549281,0,1698375086.8682,87
-0.3203,-2.3425,-0.0998,0.808,-0.0541,-2.3536,0.4294,1.3684,9.1888,2.8115,3.1872,-2.1771,0.562,-10.0578,2.6876,-1.4506,4.0629,1.0115,-2.278,-9.8753,0.5402,0.7623,0.647005,0,1698375086.8778,88
-0.3383,-2.2003,-0.0932,0.7619,0.0946,-2.0716,0.7278,1.088,9.0457,2.7897,3.6564,-1.9436,0.2852,-10.169,2.8133,-1.4287,4.1734,1.169,-2.2164,-9.9407,0.5767,0.6808,0.724599,0,1698375086.8886,88
-0.3556,-2.1005,-0.0867,0.748,0.1308,-1.758,1.0558,0.7361,8.9789,2.685,4.1205,-1.6761,-0.0483,-10.1316,2.9325,-1.3233,3.9864,1.3748,-2.0177,-9.9121,0.6451,0.6512,0.785008,0,1698375086.8989,89
-0.3728,-2.0118,-0.0801,0.7415,0.1215,-1.4351,1.378,0.5525,9.0652,2.4712,4.4589,-1.4224,-0.3277,-9.9276,2.9918,-1.1348,3.6146,1.5739,-1.7952,-9.8065,0.7826,0.691,0.832086,0,1698375086.909,90
-0.3886,-1.9405,-0.0739,0.7177,0.2071,-1.2108,1.6699,0.4398,9.1953,2.2867,4.6237,-1.227,-0.5371,-9.6234,3.0629,-0.9047,3.1561,1.8905,-1.6079,-9.6432,0.959,0.7848,0.868554,0,1698375086.919,91
-0.4029,-1.8104,-0.0676,0.6952,0.3427,-1.0638,1.8967,0.355,9.1817,2.1922,4.5983,-1.0224,-0.6657,-9.2719,3.1411,-0.662,2.7234,2.0417,-1.4275,-9.4517,1.1184,0.8771,0.896823,0,1698375086.9283,91
-0.4157,-1.7011,-0.0611,0.6831,0.465,-0.8882,2.043,0.462,9.0549,2.0884,4.4371,-0.8064,-0.682,-8.8805,3.1861,-0.4477,2.4034,1.9343,-1.2575,-9.2417,1.2631,0.9413,0.919035,0,1698375086.9379,92
-0.4276,-1.6112,-0.0543,0.6857,0.5506,-0.7485,2.1217,0.5831,8.9935,1.953,4.2054,-0.6028,-0.595,-8.4643,3.2114,-0.2665,2.2111,1.8337,-1.0837,-9.0287,1.372,0.9712,0.936649,0,1698375086.9476,93
-0.439,-1.4581,-0.0466,0.7019,0.6222,-0.6664,2.1556,0.5465,8.8467,1.866,4.0058,-0.368,-0.5206,-8.0672,3.237,-0.1241,2.1317,1.7497,-0.9053,-8.8327,1.4504,0.9775,0.95057,0,1698375086.9579,94
-0.4505,-1.3157,-0.0374,0.7187,0.6395,-0.5591,2.1112,0.5771,8.7436,1.7471,3.8252,-0.2282,-0.4065,-7.7376,3.2328,-0.0173,2.1304,1.6435,-0.7369,-8.6682,1.4953,0.9851,0.961482,0,1698375086.9698,95
-0.4605,-1.2023,-0.0276,0.7736,0.6197,-0.3599,1.9906,0.7847,8.6392,1.4372,3.5733,-0.2338,-0.1705,-7.4913,3.2065,0.0911,2.1883,1.4136,-0.5711,-8.5276,1.4933,0.9768,0.970023,0,1698375086.9793,95
-0.4673,-1.0612,-0.0183,0.8217,0.6308,-0.281,1.8228,0.7373,8.575,1.4121,3.2907,-0.2885,0.0826,-7.3422,3.1917,0.2161,2.2392,1.1686,-0.387,-8.386,1.4733,0.9894,0.976695,0,1698375086.9892,96
-0.4722,-0.8944,-0.0093,0.8334,0.5984,-0.2257,1.62,0.7239,8.6552,1.5707,2.9894,-0.4264,0.3287,-7.2932,3.1605,0.3325,2.2063,1.0251,-0.1902,-8.2488,1.453,1.0115,0.981889,0,1698375086.9988,97
-0.4757,-0.7564,-0.0001,0.8484,0.6168,-0.0788,1.4029,0.9795,8.7544,1.5153,2.6634,-0.559,0.5642,-7.3043,3.122,0.3978,2.0862,0.9656,0.0043,-8.1618,1.4085,1.0296,0.985924,0,1698375087.0093,98
-0.478,-0.629,0.01,0.8773,0.6285,0.049,1.1916,1.1465,8.7799,1.5081,2.3232,-0.628,0.765,-7.3762,3.116,0.4129,1.9187,0.8743,0.1861,-8.1348,1.3321,1.0579,0.989054,0,1698375087.0199,98
-0.4789,-0.4982,0.0198,0.9051,0.5992,0.2044,0.9755,1.296,8.8454,1.529,1.9916,-0.6671,0.9107,-7.5008,3.1088,0.4138,1.7614,0.6798,0.3256,-8.1317,1.2583,1.092,0.99147,0,1698375087.0299,99
-0.479,-0.3792,0.0285,0.908,0.4384,0.4206,0.7438,1.4086,9.0519,1.4362,1.6889,-0.6684,0.9813,-7.6302,3.08,0.4093,1.64,0.3813,0.428,-8.1392,1.1844,1.132,0.993225,0,1698375087.0397,0
-0.4788,-0.2691,0.0364,0.8675,0.1763,0.6312,0.4726,1.4784,9.2507,1.2823,1.3814,-0.5579,1.0088,-7.7404,3.074,0.4157,1.5577,0.0241,0.5152,-8.152,1.1141,1.189,0.993414,0,1698375087.0491,1
-0.4783,-0.1798,0.043,0.805,-0.0255,0.7564,0.1801,1.5709,9.3776,1.1592,1.0982,-0.4302,1.0012,-7.8155,3.0933,0.4346,1.4843,-0.2831,0.5948,-8.1657,1.0655,1.2606,0.992849,0,1698375087.059,2
-0.4761,-0.0602,0.0491,0.7505,-0.4559,1.0027,-0.1305,1.6299,9.3842,0.9215,0.8211,-0.4214,0.9238,-7.8853,3.1135,0.4779,1.3967,-0.4697,0.6797,-8.2142,1.0105,1.3309,0.979536,0,1698375087.0688,2
-0.4708,0.1428,0.0552,0.6975,-1.0066,1.3339,-0.4724,1.5183,9.5011,0.604,0.5011,-0.5126,0.7716,-7.9917,3.1074,0.5348,1.2826,-0.6096,0.7619,-8.275,0.9577,1.3788,0.76622,0,1698375087.0794,3
-0.4613,0.3672,0.0608,0.6765,-1.2145,1.4973,-0.8112,1.1141,9.3513,0.5095,0.1384,-0.6379,0.5946,-8.0922,3.0827,0.5779,1.0739,-0.7242,0.8444,-8.3152,0.9547,1.4018,0.392771,0,1698375087.0899,4
-0.448,0.5719,0.0668,0.6714,-1.2439,1.5501,-1.163,1.2585,9.7001,0.3655,-0.2636,-0.8086,0.4519,-8.159,3.087,0.6295,0.743,-0.7578,0.9255,-8.3833,0.9972,1.4523,0.084069,0,1698375087.0995,5
-0.4332,0.7648,0.0739,0.6894,-1.0102,1.5911,-1.403,1.3228,9.8223,0.3069,-0.6439,-1.0706,0.3838,-8.2615,3.1072,0.7052,0.3351,-0.7089,0.9843,-8.499,1.085,1.5386,-0.156384,0,1698375087.1096,6
-0.4179,0.9133,0.0825,0.7413,-0.6063,1.64,-1.5068,0.8054,9.3581,0.586,-0.9308,-1.3594,0.382,-8.4282,3.1234,0.7648,-0.1027,-0.5644,1.0129,-8.6148,1.1802,1.6174,-0.343407,0,1698375087.1202,7
-0.4023,1.0218,0.0923,0.8105,-0.1596,1.6934,-1.5422,0.5026,9.0176,0.8791,-1.1486,-1.5471,0.4232,-8.6106,3.1389,0.7998,-0.5433,-0.321,1.0113,-8.7438,1.2472,1.701,-0.488993,0,1698375087.1291,7
-0.3883,1.1006,0.1022,0.893,0.3101,1.7621,-1.5365,0.4545,8.7099,0.957,-1.3015,-1.5718,0.514,-8.7848,3.1606,0.8129,-0.9869,-0.0637,0.9972,-8.9332,1.2904,1.7708,-0.602475,0,1698375087.1384,8
-0.3765,1.1457,0.1117,0.9422,0.6365,1.8069,-1.5381,0.4814,8.9893,0.8844,-1.3632,-1.4735,0.6237,-8.9689,3.2015,0.796,-1.3988,0.0842,0.9769,-9.1608,1.2914,1.8127,-0.69103,0,1698375087.1493,9
-0.3655,1.1207,0.1207,0.9548,0.9267,1.7914,-1.5111,0.3504,9.4141,0.8059,-1.3907,-1.3229,0.7362,-9.1714,3.2731,0.7696,-1.7103,0.0166,0.945,-9.3983,1.2561,1.8695,-0.759953,0,1698375087.1588,10
-0.3567,1.0307,0.1289,0.9481,1.1138,1.9771,-1.4578,0.2473,9.7213,0.747,-1.4231,-1.2213,0.8466,-9.3704,3.3496,0.7506,-1.9428,-0.2412,0.904,-9.5929,1.2182,1.961,-0.813498,0,1698375087.1693,11
-0.3503,0.9211,0.1359,0.8878,1.1977,2.1026,-1.3943,0.2175,10.1528,0.7467,-1.4772,-1.1722,0.9187,-9.5301,3.406,0.7477,-2.131,-0.5258,0.8815,-9.7229,1.1888,2.0788,-0.855054,0,1698375087.179,11
-0.3469,0.7597,0.142,0.8162,1.4905,1.8814,-1.2529,0.1579,10.1636,0.8788,-1.5653,-1.1247,0.9551,-9.661,3.4646,0.751,-2.2773,-0.7307,0.899,-9.8348,1.1545,2.1803,-0.887165,0,1698375087.1888,12
-0.3466,0.5677,0.1479,0.7909,1.7647,1.7683,-1.0433,0.2291,9.8365,0.7772,-1.6857,-1.0537,0.9885,-9.7748,3.5349,0.7894,-2.4062,-0.8046,0.95,-9.9619,1.1414,2.2654,-0.911984,0,1698375087.1987,13
-0.3479,0.4059,0.1535,0.7732,1.7561,1.8868,-0.7826,0.4949,9.9719,0.2906,-1.838,-0.9202,1.0119,-9.9027,3.6125,0.8791,-2.4961,-0.8757,1.0136,-10.0772,1.1596,2.3527,-0.931287,0,1698375087.2091,14
-0.3489,0.3005,0.1588,0.7307,1.7717,2.0716,-0.4599,0.6923,10.2376,-0.0693,-2.0083,-0.8029,1.0198,-10.0469,3.7059,1.0075,-2.5472,-1.0945,1.0842,-10.2076,1.2296,2.4641,-0.946226,0,1698375087.2195,15
-0.3491,0.2366,0.1649,0.6935,1.8638,2.2826,-0.1112,0.8641,10.4812,-0.2509,-2.19,-0.7679,1.0362,-10.1857,3.833,1.1391,-2.6431,-1.3531,1.1698,-10.3832,1.3757,2.6029,-0.957331,0,1698375087.2296,15
-0.3487,0.1801,0.1714,0.6675,2.0036,2.5214,0.1911,1.1883,10.8017,-0.3355,-2.4479,-0.838,1.0788,-10.3354,4.0266,1.2662,-2.8608,-1.5607,1.266,-10.6374,1.5581,2.7178,-0.964398,0,1698375087.2399,16
-0.3481,0.1645,0.1765,0.626,2.0985,2.804,0.4097,1.5583,11.139,-0.3726,-2.8732,-1.039,1.1723,-10.4803,4.308,1.3743,-3.1807,-1.7697,1.3604,-10.9715,1.7524,2.8187,-0.943465,0,1698375087.2501,17
-0.3452,0.258,0.1799,0.5499,1.4479,3.3372,0.5071,1.8134,11.896,-0.4396,-3.4668,-1.3766,1.3217,-10.5721,4.604,1.4483,-3.5136,-2.0488,1.4346,-11.2639,1.953,2.9217,-0.706393,0,1698375087.2592,18
-0.338,0.455,0.1812,0.4351,0.6442,3.6694,0.5052,1.4761,12.6075,-0.1485,-4.1043,-1.8246,1.4778,-10.6241,4.8684,1.4636,-3.8607,-2.3065,1.4922,-11.4142,2.1631,2.9827,-0.326109,0,1698375087.2689,19
-0.3265,0.693,0.1809,0.3352,0.5032,3.7102,0.4569,0.7702,12.4612,0.3342,-4.6915,-2.2995,1.599,-10.6695,5.0749,1.4241,-4.2318,-2.4564,1.5608,-11.4364,2.3245,2.9443,-0.030246,0,1698375087.2786,20
-0.3125,0.8697,0.1794,0.2222,0.8172,3.8612,0.4577,0.3235,11.2047,0.9619,-5.151,-2.8483,1.665,-10.6984,5.1962,1.355,-4.595,-2.6018,1.6592,-11.393,2.3896,2.7747,0.199511,0,1698375087.2887,20
-0.2983,0.949,0.1753,0.0276,1.4122,3.7714,0.6262,-0.1029,10.2694,1.6099,-5.3989,-3.4227,1.6873,-10.6992,5.2263,1.242,-4.9623,-2.7633,1.7587,-11.2601,2.3937,2.5192,0.262367,0,1698375087.2986,21
-0.2869,0.927,0.1675,-0.2347,1.8854,3.5662,0.8448,-0.5105,10.2736,2.076,-5.426,-3.8008,1.6936,-10.6923,5.1401,1.0791,-5.326,-2.7737,1.8522,-11.0558,2.3456,2.1751,0.088031,0,1698375087.3086,22
-0.2801,0.8087,0.1555,-0.5474,2.2411,3.5014,1.2047,-1,10.5848,2.4961,-5.2452,-3.8311,1.6814,-10.6523,4.9633,0.8154,-5.5966,-2.6003,1.9324,-10.7959,2.2465,1.7694,-0.15487,0,1698375087.3186,23
-0.2769,0.6632,0.1399,-0.832,2.2446,3.5797,1.612,-1.3615,10.9369,2.6577,-4.9232,-3.5334,1.6089,-10.5284,4.7658,0.5005,-5.6176,-2.4136,1.9692,-10.5028,2.1086,1.4396,-0.343562,0,1698375087.3293,24
-0.2749,0.5787,0.1192,-1.1325,1.938,3.6099,1.9208,-1.359,10.8199,2.9303,-4.6194,-3.0899,1.4511,-10.3322,4.5574,0.2375,-5.3748,-2.3401,1.9484,-10.1515,1.9798,1.2371,-0.490123,0,1698375087.3391,24
-0.2708,0.5856,0.0956,-1.4692,1.659,3.5037,1.9807,-0.9196,10.2351,3.4175,-4.4039,-2.5521,1.2068,-10.0139,4.3401,0.061,-5.0371,-2.2754,1.8691,-9.6906,1.8915,1.1138,-0.603951,0,1698375087.3485,25
-0.263,0.643,0.0694,-1.7616,1.4167,3.3813,1.77,-0.2949,9.8969,3.5576,-4.2715,-1.8053,0.9036,-9.5506,4.1458,-0.0146,-4.7433,-2.0002,1.7641,-9.1911,1.8508,0.9832,-0.692226,0,1698375087.3584,26
-0.2519,0.7262,0.0392,-1.9904,1.1986,3.3254,1.5935,-0.2531,9.7221,3.5119,-4.2359,-0.9032,0.6042,-8.993,4.0359,-0.067,-4.5679,-1.4396,1.7038,-8.7645,1.8907,0.8236,-0.757229,0,1698375087.369,27
-0.238,0.8423,0.0067,-2.1757,0.7557,3.5342,1.4487,-0.42,9.4695,3.4334,-4.302,0.0336,0.3231,-8.4362,4.0428,-0.1528,-4.5101,-0.7076,1.7422,-8.4947,1.9902,0.6977,-0.7467,0,1698375087.3787,28
-0.224,0.9226,-0.0264,-2.447,0.3325,3.7398,1.3491,-0.5174,9.6342,3.34,-4.4463,0.9103,0.069,-8.0208,4.1466,-0.2772,-4.5487,-0.0308,1.8462,-8.3674,2.1244,0.6809,-0.544897,0,1698375087.3889,28
-0.2113,0.9624,-0.0588,-2.629,0.1205,3.6993,1.3458,-0.8287,9.7842,3.348,-4.6299,1.7089,-0.0986,-7.7663,4.3001,-0.4283,-4.6238,0.3909,1.9448,-8.3736,2.2847,0.7948,-0.249258,0,1698375087.3987,29
-0.1999,0.9969,-0.0897,-2.7003,-0.2206,3.586,1.4285,-1.1774,9.9703,3.1874,-4.7563,2.3258,-0.1725,-7.6677,4.422,-0.5524,-4.6183,0.5055,1.9575,-8.4899,2.4366,0.9835,-0.02236,0,1698375087.4086,30
-0.1898,0.9939,-0.1194,-2.7972,-0.4157,3.4,1.5481,-1.5795,10.1656,2.991,-4.7591,2.7214,-0.1515,-7.7823,4.4662,-0.6159,-4.4444,0.4206,1.8498,-8.6847,2.5139,1.1878,0.144938,0,1698375087.419,31
-0.1796,1.0118,-0.1478,-2.7587,-0.5152,3.1626,1.5712,-2.0503,10.1625,2.842,-4.6351,3.0048,-0.0193,-8.0739,4.4508,-0.6115,-4.0767,0.3027,1.634,-8.9274,2.4809,1.3497,0.267179,0,1698375087.4301,32
-0.1682,1.0663,-0.1764,-2.7125,-0.6956,2.9135,1.4041,-2.2557,10.367,2.6081,-4.3931,3.2037,0.1558,-8.4661,4.3955,-0.5428,-3.5959,0.217,1.3505,-9.1502,2.3796,1.4389,0.33455,0,1698375087.4392,33
-0.1565,1.0881,-0.2024,-2.659,-0.7335,2.4891,1.0477,-2.2967,10.4467,2.4646,-4.0986,3.2746,0.2662,-8.8843,4.3192,-0.4655,-3.0913,0.096,1.0707,-9.2759,2.2424,1.4319,0.349578,0,1698375087.4482,33
-0.1454,1.0709,-0.2241,-2.5061,-0.6666,1.96,0.5161,-2.2616,10.2189,2.3748,-3.8281,3.2667,0.2685,-9.1891,4.2503,-0.4556,-2.6056,-0.1668,0.8406,-9.2738,2.0926,1.3586,0.343127,0,1698375087.458,34
-0.1339,1.0948,-0.2456,-2.3828,-0.5669,1.4365,-0.1142,-2.0693,10.0385,2.1391,-3.5736,3.281,0.1373,-9.2912,4.1308,-0.5044,-2.1678,-0.566,0.6695,-9.1835,1.9404,1.2763,0.328327,0,1698375087.4676,35
-0.1228,1.1144,-0.2667,-2.3335,-0.2978,0.8075,-0.7537,-2.0211,9.6993,2.0124,-3.2738,3.3091,-0.1486,-9.2344,3.9307,-0.5617,-1.7758,-0.9341,0.5451,-9.0337,1.7727,1.1924,0.283504,0,1698375087.4777,36
-0.1125,1.0746,-0.2862,-2.3006,-0.0094,0.1247,-1.3783,-2.1105,9.4518,1.9397,-2.9352,3.1937,-0.5463,-9.0903,3.7361,-0.6218,-1.4022,-1.1628,0.4323,-8.8481,1.6107,1.1739,0.171065,0,1698375087.4877,37
-0.1029,1.0234,-0.3048,-2.2577,0.154,-0.4875,-1.9537,-2.1771,9.22,1.8067,-2.5844,3.0547,-0.9259,-8.8544,3.5665,-0.6359,-1.0064,-1.3695,0.3046,-8.6385,1.4594,1.2448,0.051162,0,1698375087.4977,37
-0.0942,0.9624,-0.323,-2.1726,0.2682,-1.0244,-2.4467,-2.1857,8.9924,1.7452,-2.1577,3.0362,-1.156,-8.5586,3.3561,-0.5725,-0.5652,-1.64,0.1654,-8.4144,1.3232,1.3665,0.009898,0,1698375087.5078,38
-0.0862,0.8964,-0.3412,-2.1017,0.3534,-1.5096,-2.8518,-2.1229,8.8015,1.7927,-1.7061,2.7116,-1.3083,-8.3243,3.1649,-0.4864,-0.2481,-1.5049,0.007,-8.2118,1.2094,1.5807,0.010458,0,1698375087.5177,39
-0.0785,0.8662,-0.3593,-2.0715,0.4299,-2.0049,-3.1451,-2.1688,8.5871,1.8882,-1.3886,2.7254,-1.3575,-8.1175,3.0135,-0.3355,-0.058,-1.0353,-0.1689,-8.0071,1.1162,1.8323,-0.001088,0,1698375087.528,40
-0.0711,0.8451,-0.3764,-1.9794,0.4151,-2.4407,-3.3192,-2.2338,8.562,1.8216,-1.0499,2.6918,-1.2441,-7.9232,2.8587,-0.2269,0.0914,-0.6909,-0.3123,-7.8244,1.0299,2.0251,-0.07221,0,1698375087.5377,41
-0.0643,0.8028,-0.3925,-1.8893,0.3338,-2.7588,-3.3829,-2.1857,8.6147,1.5902,-0.7621,2.1612,-1.1185,-7.8105,2.7663,-0.176,0.1665,-0.3962,-0.4262,-7.6979,0.9413,2.1516,-0.177684,0,1698375087.5478,41
-0.0577,0.7453,-0.4073,-1.8299,0.3038,-3.0493,-3.3301,-2.144,8.6233,1.45,-0.6861,1.9758,-1.021,-7.7665,2.7124,-0.052,0.206,-0.1077,-0.5241,-7.6114,0.8849,2.2098,-0.254601,0,1698375087.5582,42
-0.0509,0.6917,-0.4212,-1.707,0.301,-3.2639,-3.203,-1.9952,8.6471,1.3585,-0.6057,1.853,-0.8898,-7.7585,2.6407,0.0593,0.2547,0.1335,-0.63,-7.5793,0.8661,2.2429,-0.2857,0,1698375087.5685,43
-0.044,0.6871,-0.4337,-1.5266,0.2528,-3.3658,-3.0166,-1.7138,8.7241,1.2495,-0.4426,1.7909,-0.73,-7.7513,2.5911,0.1244,0.3155,0.2697,-0.7898,-7.5904,0.9137,2.2775,-0.281382,0,1698375087.5786,44
-0.0374,0.6906,-0.4443,-1.3686,0.1873,-3.4509,-2.8001,-1.4325,8.8413,1.1474,-0.1814,1.7887,-0.6007,-7.7849,2.6348,0.1495,0.3746,0.4769,-0.9948,-7.6209,1.0183,2.2966,-0.270357,0,1698375087.5885,45
-0.0313,0.6702,-0.4534,-1.2315,0.0401,-3.4889,-2.5877,-1.1974,8.8838,1.136,0.117,1.9318,-0.5071,-7.8193,2.7255,0.1308,0.4589,0.5339,-1.1788,-7.6476,1.1206,2.3024,-0.246771,0,1698375087.5995,46
-0.0251,0.6571,-0.4611,-1.1079,-0.214,-3.4256,-2.3775,-0.9081,9.0274,1.0727,0.3956,2.268,-0.431,-7.8458,2.8344,0.0797,0.5857,0.3395,-1.2748,-7.7057,1.2116,2.3199,-0.199644,0,1698375087.6094,46
-0.0193,0.6416,-0.4668,-0.9544,-0.4302,-3.3755,-2.1444,-0.7505,9.1218,0.9449,0.6853,2.4933,-0.3924,-7.8597,2.9674,-0.0057,0.7669,0.2082,-1.2779,-7.8287,1.2949,2.3512,-0.145846,0,1698375087.6194,47
-0.0145,0.6111,-0.4694,-0.7661,-0.6492,-3.2948,-1.8833,-0.7123,9.064,0.8801,0.8975,2.6334,-0.4143,-7.8531,3.0961,-0.0555,0.9647,0.136,-1.212,-7.9482,1.3617,2.3715,-0.106448,0,1698375087.6295,48
-0.01,0.5853,-0.4698,-0.5922,-0.8141,-3.1759,-1.6199,-0.6746,9.1115,0.8888,1.0394,2.6885,-0.4766,-7.8707,3.2126,-0.0532,1.1465,0.0799,-1.1251,-8.0493,1.4304,2.387,-0.077668,0,1698375087.6395,49
-0.0055,0.5728,-0.4694,-0.4483,-0.9841,-3.0265,-1.3634,-0.655,9.0824,0.9445,1.17,2.6129,-0.5292,-7.8951,3.3266,-0.0168,1.3329,-0.0489,-1.0252,-8.1268,1.5041,2.3835,-0.056314,0,1698375087.6493,50
-0.0008,0.5427,-0.4691,-0.3414,-1.2123,-2.8295,-1.1061,-0.6432,8.9168,0.91,1.2902,2.3479,-0.576,-7.9265,3.4729,0.045,1.5628,-0.281,-0.905,-8.1515,1.5848,2.3576,-0.040194,0,1698375087.6594,50
0.0036,0.5101,-0.4686,-0.2435,-1.3572,-2.6807,-0.8501,-0.7048,8.7924,0.8364,1.3597,1.9725,-0.6098,-7.9312,3.5948,0.1194,1.7764,-0.3718,-0.7707,-8.1185,1.6951,2.3198,-0.031771,0,1698375087.6695,51
0.0079,0.4901,-0.467,-0.1106,-1.4996,-2.5523,-0.6274,-0.695,8.8575,0.8776,1.3473,1.634,-0.636,-7.8998,3.6879,0.2063,1.8656,-0.1083,-0.6426,-8.0667,1.823,2.2741,-0.022732,0,1698375087.6807,52
0.0125,0.4649,-0.4623,0.0449,-1.7662,-2.387,-0.3811,-0.5756,8.8191,0.9294,1.2421,1.3413,-0.6811,-7.8554,3.7838,0.2816,1.8215,0.3674,-0.5405,-8.0374,1.9496,2.2317,-0.0064,0,1698375087.69,53
0.0173,0.4641,-0.4546,0.2512,-1.9434,-2.2118,-0.0816,-0.4485,8.4212,1.0087,1.0497,1.0926,-0.7273,-7.8246,3.8534,0.331,1.7157,0.7386,-0.4816,-8.0194,2.0605,2.2113,0.011718,0,1698375087.6993,54
0.0216,0.4705,-0.4442,0.5163,-1.8382,-2.102,0.238,-0.4053,7.8417,1.1146,0.8439,0.8671,-0.7639,-7.8211,3.8965,0.3496,1.6233,0.8394,-0.447,-8.0133,2.1494,2.196,0.029633,0,1698375087.7094,54
0.0261,0.485,-0.4308,0.7335,-1.6891,-2.01,0.5297,-0.3501,7.5816,1.037,0.6893,0.6382,-0.7882,-7.852,3.9396,0.3581,1.5344,0.8998,-0.4252,-8.0106,2.2189,2.1574,0.046124,0,1698375087.7193,55
0.0318,0.5508,-0.4161,0.8948,-1.3918,-1.9385,0.7358,-0.3358,7.6196,0.8947,0.6117,0.4477,-0.7891,-7.9305,3.9774,0.3458,1.3888,1.1887,-0.4407,-8.0302,2.278,2.1654,0.062176,0,1698375087.7294,56
0.0393,0.6435,-0.4008,1.0376,-0.8618,-1.9426,0.8669,-0.4885,7.5694,0.8379,0.6418,0.3414,-0.7497,-8.0404,3.9899,0.3151,1.2015,1.5597,-0.4765,-8.1087,2.3041,2.2397,0.053574,0,1698375087.7398,57
0.0479,0.7046,-0.3854,1.1533,-0.4032,-1.9135,0.9219,-0.5861,7.5425,0.7772,0.7658,0.2436,-0.6808,-8.1407,3.9881,0.3075,1.0287,1.8462,-0.5146,-8.235,2.2749,2.341,0.020929,0,1698375087.7501,58
0.057,0.736,-0.37,1.2829,-0.0564,-1.8686,0.9237,-0.6241,7.7646,0.7336,0.9013,0.0883,-0.6154,-8.255,3.9717,0.3533,0.9099,2.0423,-0.5544,-8.3771,2.2055,2.4547,0.000877,0,1698375087.761,59
0.0661,0.7681,-0.3542,1.3755,0.2181,-1.8679,0.8859,-0.7627,8.2799,0.7333,0.9997,-0.1132,-0.5697,-8.3964,3.9523,0.4412,0.8499,2.0975,-0.5964,-8.5084,2.0992,2.558,-0.016445,0,1698375087.7704,59
0.0743,0.7917,-0.3395,1.3697,0.45,-1.8801,0.7926,-0.884,8.9173,0.7425,1.0514,-0.3278,-0.5461,-8.5442,3.9202,0.5437,0.8426,1.9264,-0.6367,-8.6183,1.965,2.6377,-0.043653,0,1698375087.7803,60
0.0811,0.7861,-0.3271,1.3086,0.4861,-1.7729,0.6852,-0.8593,9.4509,0.7927,1.06,-0.554,-0.5525,-8.7002,3.8703,0.6743,0.871,1.5123,-0.6782,-8.6936,1.8448,2.6846,-0.074049,0,1698375087.7901,61
0.0869,0.7314,-0.3174,1.2321,0.2577,-1.5481,0.5771,-0.5221,9.9784,0.8541,1.0113,-0.78,-0.5949,-8.8002,3.8589,0.8001,0.9101,0.9478,-0.719,-8.736,1.773,2.6898,-0.111726,0,1698375087.7992,62
0.0917,0.653,-0.3104,1.1184,0.0002,-1.3309,0.4965,-0.2125,10.3654,0.9467,0.9054,-1.005,-0.6629,-8.8169,3.8845,0.8938,0.9353,0.3168,-0.7558,-8.7601,1.7611,2.6511,-0.142929,0,1698375087.8082,63
0.0954,0.5743,-0.3064,0.9249,-0.1607,-1.3463,0.4918,-0.292,10.3701,0.9927,0.7404,-1.2616,-0.7267,-8.7971,3.9696,0.9543,0.9063,-0.2978,-0.7673,-8.8144,1.855,2.587,-0.151845,0,1698375087.8186,63
0.0983,0.5146,-0.3063,0.6889,-0.462,-1.2074,0.4993,-0.3492,10.4641,0.6777,0.4836,-1.4268,-0.7447,-8.7779,4.1113,1.0075,0.7466,-0.8195,-0.7098,-8.9576,2.0571,2.549,-0.120509,0,1698375087.8286,64
0.1009,0.4754,-0.3086,0.4779,-0.8511,-0.7799,0.4693,-0.3047,10.7036,0.2837,0.1375,-1.5602,-0.7213,-8.8114,4.3005,1.0396,0.4505,-1.2724,-0.5697,-9.2212,2.2972,2.5677,-0.063618,0,1698375087.839,65
0.1041,0.4503,-0.3111,0.3445,-1.0878,-0.5348,0.3864,-0.4708,10.925,0.2227,-0.248,-1.6937,-0.6954,-9.0071,4.5359,1.0644,0.1233,-1.7358,-0.3944,-9.5949,2.5053,2.6468,-0.014962,0,1698375087.8487,66
0.1087,0.4792,-0.3122,0.2781,-1.2435,-0.3675,0.2112,-0.6811,11.2155,0.2764,-0.6319,-1.7581,-0.6608,-9.3994,4.7637,1.1034,-0.1403,-2.2526,-0.2633,-10.0211,2.6402,2.8066,0.023165,0,1698375087.8588,67
0.1143,0.5106,-0.3119,0.2442,-1.2527,-0.2545,-0.0348,-0.7789,11.3894,0.3946,-0.9419,-1.8346,-0.5742,-9.892,4.9283,1.124,-0.3219,-2.7068,-0.2178,-10.4463,2.7033,3.008,0.05033,0,1698375087.8684,67
0.1195,0.504,-0.3102,0.2705,-0.9361,-0.321,-0.3222,-0.8057,12.3689,0.427,-1.0635,-1.8403,-0.4363,-10.3663,4.9955,1.1206,-0.4085,-2.9548,-0.2455,-10.791,2.689,3.1372,0.0683,0,1698375087.8797,68
0.1236,0.474,-0.3051,0.379,-0.2539,-0.5261,-0.5446,-0.9623,12.5835,0.8707,-1.0505,-1.6462,-0.2865,-10.7462,5.0274,1.0957,-0.3028,-3.1909,-0.2695,-11.0699,2.5856,3.2142,0.078191,0,1698375087.8895,69
0.1265,0.4037,-0.2967,0.4956,0.0331,-0.4834,-0.7471,-0.7651,11.993,1.3677,-1.0532,-1.3651,-0.1804,-11.0282,5.0318,1.0732,-0.0365,-3.6538,-0.232,-11.2927,2.4615,3.335,0.080024,0,1698375087.8995,70
0.1276,0.3175,-0.2875,0.5632,-0.0481,-0.1162,-1.0067,-0.1902,12.0451,1.3809,-1.0689,-1.1697,-0.1355,-11.2235,4.9663,1.0204,0.1515,-4.2519,-0.161,-11.4078,2.4242,3.4441,0.074083,0,1698375087.9095,71
0.1278,0.2469,-0.2795,0.6001,-0.0576,0.2321,-1.2493,0.0541,12.0199,1.4866,-1.0309,-1.1142,-0.0947,-11.358,4.8874,0.8955,0.2396,-4.489,-0.1,-11.4835,2.4569,3.4783,0.06304,0,1698375087.9197,72
0.1276,0.1918,-0.2732,0.5773,0.0544,0.443,-1.4504,-0.0235,12.0376,1.8942,-0.9766,-1.1854,-0.0084,-11.4788,4.841,0.6771,-0.0303,-4.0118,-0.05,-11.5974,2.4711,3.4484,0.053207,0,1698375087.9297,72
0.127,0.1175,-0.2693,0.491,0.3007,0.6255,-1.6254,-0.1302,11.8532,2.4562,-0.9983,-1.2627,0.0441,-11.6199,4.8181,0.3933,-0.6251,-3.1452,-0.0112,-11.734,2.4285,3.336,0.051918,0,1698375087.9404,73
0.1247,0.0085,-0.2682,0.3965,0.4179,0.913,-1.7349,-0.1402,11.588,2.8528,-1.0144,-1.2632,0.0329,-11.7191,4.7525,0.069,-1.0164,-2.294,-0.0236,-11.7719,2.3483,3.1754,0.060219,0,1698375087.9501,74
0.1191,-0.1701,-0.2675,0.3572,0.3385,1.1347,-1.7109,-0.3107,11.7968,2.9966,-0.8803,-1.1017,-0.003,-11.6134,4.5663,-0.277,-1.0885,-1.5093,-0.0853,-11.6124,2.2237,2.9906,0.073179,0,1698375087.9593,75
0.1088,-0.4342,-0.2642,0.4043,0.437,1.1398,-1.5704,-0.8881,11.8323,3.1125,-0.627,-0.7555,-0.077,-11.2784,4.2698,-0.5915,-0.9017,-0.8231,-0.1528,-11.2661,2.0361,2.7895,-0.020919,0,1698375087.9706,76
0.0918,-0.7878,-0.2559,0.5272,0.6278,1.0364,-1.2857,-1.5315,11.1535,3.2295,-0.316,-0.3528,-0.1498,-10.8014,3.9489,-0.8299,-0.6304,-0.2219,-0.2214,-10.7871,1.8436,2.5791,-0.219182,0,1698375087.9804,76
0.0701,-1.1357,-0.2433,0.7219,0.6617,0.8512,-0.9274,-1.7928,10.4456,3.187,0.084,0.0861,-0.1739,-10.2035,3.6497,-0.9755,-0.4095,0.447,-0.2977,-10.2052,1.6761,2.3478,-0.392618,0,1698375087.99,77
0.0468,-1.4742,-0.23,0.8809,0.7503,0.6384,-0.5741,-1.9022,9.5584,3.165,0.6094,0.6767,-0.1279,-9.521,3.3262,-1.0589,-0.2294,1.2239,-0.3783,-9.5392,1.4902,2.1189,-0.528102,0,1698375087.9998,78
0.0212,-1.8075,-0.2167,1.0005,0.8626,0.393,-0.2357,-1.8899,8.6231,3.064,1.2988,1.3178,-0.0496,-8.8126,2.9495,-1.1293,0.0076,2.003,-0.434,-8.8385,1.2362,1.8725,-0.633006,0,1698375088.01,79
-0.0058,-1.9968,-0.2038,1.1155,1.0077,0.0251,0.039,-1.8707,8.0199,3.0614,2.0677,1.8414,0.0053,-8.117,2.5733,-1.2081,0.3954,2.6191,-0.4262,-8.1681,0.9139,1.5915,-0.491896,0,1698375088.0192,80
-0.0321,-2.1414,-0.1927,1.1519,1.2091,-0.4405,0.2737,-2.1055,7.6046,3.2152,2.7707,2.1994,0.0224,-7.4973,2.2367,-1.2633,0.9148,2.9869,-0.352,-7.5837,0.5806,1.2977,-0.159507,0,1698375088.0293,80
-0.0581,-2.2809,-0.183,1.1522,1.2743,-0.7961,0.4483,-2.1365,7.256,3.2612,3.3584,2.3821,0.0246,-7.0191,1.9459,-1.3004,1.4912,3.2189,-0.2116,-7.1323,0.2854,1.0526,0.099324,0,1698375088.0394,81
-0.0857,-2.3536,-0.1742,1.1286,1.2125,-1.0894,0.5584,-1.9757,7.4391,3.1483,3.7408,2.351,0.0297,-6.7386,1.7753,-1.3348,2.0676,3.3267,-0.0413,-6.8759,0.0767,0.9042,0.300394,0,1698375088.0499,82
-0.1152,-2.4119,-0.1658,1.0869,1.1125,-1.393,0.6098,-1.7433,8.0427,2.996,3.8938,1.9749,0.0055,-6.6835,1.6866,-1.3254,2.5366,3.2561,0.0808,-6.8231,-0.0177,0.8653,0.456579,0,1698375088.0589,83
-0.1442,-2.5731,-0.1577,1.0582,0.8661,-1.5999,0.556,-1.3089,8.8183,2.8982,3.7433,1.2695,-0.0499,-6.8553,1.6365,-1.2473,2.8046,3.0727,0.099,-6.9661,0.0118,0.945,0.577307,0,1698375088.0686,84
-0.1723,-2.7189,-0.1494,1.0393,0.6678,-1.7589,0.4554,-0.7708,9.5851,2.83,3.2719,0.3636,-0.1211,-7.2013,1.7263,-1.1362,2.8568,2.8015,0.0133,-7.2873,0.1622,1.093,0.666309,0,1698375088.0787,85
-0.2017,-2.7888,-0.1405,1.0237,0.4892,-1.8261,0.3594,-0.1328,9.8031,2.9566,2.5709,-0.5897,-0.1567,-7.6253,1.9375,-1.0175,2.6161,2.6104,-0.1759,-7.7383,0.4068,1.2458,0.735722,0,1698375088.0884,85
-0.2305,-2.8729,-0.1315,1.0061,0.3084,-1.591,0.3092,0.9021,9.8721,3.0484,1.0258,-1.9148,0.056,-8.6111,2.429,-0.8196,1.8543,2.126,-0.9403,-8.9731,0.8321,1.385,0.794364,0,1698375088.1051,86
-0.2644,-2.7977,-0.1204,1.0016,0.3084,-1.591,0.3092,0.9021,9.8721,3.0484,1.0258,-1.9148,0.056,-8.6111,2.429,-0.8196,1.8543,2.126,-0.9403,-8.9731,0.8321,1.385,0.840223,0,1698375088.1147,87
-0.296,-2.6137,-0.1096,0.9956,0.4017,-1.3224,0.4384,1.1591,9.423,3.1041,0.6507,-1.9495,0.222,-9.1258,2.6624,-0.8897,1.9533,1.7807,-1.3341,-9.5855,0.8827,1.2637,0.875895,0,1698375088.124,88
-0.3173,-2.504,-0.1014,0.9714,0.5364,-0.9639,0.6521,1.3234,9.1856,3.0116,0.6908,-1.6577,0.3015,-9.5763,2.8792,-1.0639,2.6072,1.3591,-1.5412,-10.0317,0.8788,1.1002,0.903604,0,1698375088.1346,89
-0.3363,-2.4013,-0.0935,0.9473,0.8558,-0.6743,0.9263,1.2377,8.9232,2.9657,1.0757,-1.3442,0.232,-9.8803,3.0263,-1.2278,3.4048,1.0282,-1.5171,-10.249,0.9176,0.9898,0.925126,0,1698375088.1447,89
-0.3537,-2.2587,-0.0858,0.9449,1.1686,-0.3625,1.2561,1.0498,8.7079,2.9535,1.6337,-1.1305,0.0536,-10.033,3.103,-1.2872,3.7619,1.1436,-1.3629,-10.2777,1.0024,0.9353,0.941843,0,1698375088.1542,90
-0.3697,-2.0762,-0.078,0.9395,1.334,0.0349,1.5855,0.9205,8.5599,2.8441,2.1395,-0.9934,-0.1464,-10.0525,3.16,-1.161,3.6131,1.5341,-1.1639,-10.1789,1.0816,0.9243,0.954828,0,1698375088.1648,91
-0.3848,-1.9275,-0.07,0.8932,1.3143,0.6853,2.1272,0.7692,8.8183,2.6797,2.772,-0.7202,-0.4657,-9.7036,3.2012,-0.5929,2.7266,1.7359,-0.8355,-9.7462,1.1726,1.0157,0.964913,0,1698375088.176,92
-0.3991,-1.8071,-0.0618,0.8456,1.4004,0.8564,2.355,0.544,8.9424,2.4676,3.0007,-0.4788,-0.5403,-9.3858,3.1454,-0.3234,2.2739,1.5927,-0.7807,-9.4365,1.2077,1.203,0.972747,0,1698375088.1858,93
-0.4119,-1.6957,-0.0539,0.8398,1.6402,1.0301,2.5276,0.4019,9.0274,2.1965,3.255,-0.1379,-0.6716,-9.0201,3.1205,-0.0847,1.7645,2.1812,-0.4194,-9.0078,1.1512,1.405,0.978832,0,1698375088.1967,93
-0.4239,-1.6125,-0.0454,0.8538,1.7447,1.2324,2.6567,0.3114,9.0842,1.8974,3.5164,0.4346,-0.8025,-8.6424,3.111,0.1563,1.743,4.79,-0.0399,-8.4175,1.191,1.2009,0.983558,0,1698375088.2072,94
-0.4353,-1.4859,-0.0361,0.8487,1.8445,1.3751,2.733,0.3309,9.085,1.6681,3.6471,0.8928,-0.8096,-8.2961,3.0815,0.2839,1.7314,8.5087,-0.2624,-7.9036,1.2511,0.8149,0.987229,0,1698375088.218,95
-0.4452,-1.3288,-0.0267,0.8361,1.8744,1.4594,2.7522,0.3893,8.9971,1.5599,3.4869,1.0383,-0.6864,-7.9927,3.0548,0.3176,1.6917,7.8419,-0.5051,-7.9706,1.1686,0.6517,0.99008,0,1698375088.2284,96
-0.4533,-1.1792,-0.0168,0.8467,1.8942,1.4943,2.7161,0.4523,9.0203,1.4121,3.1239,1.0976,-0.4944,-7.7453,3.0191,0.3683,2.1765,4.1718,-0.4575,-8.0611,1.166,0.5917,0.992295,0,1698375088.2392,97
-0.4594,-1.0466,-0.0066,0.9033,1.9692,1.7165,2.6377,0.4965,9.0241,1.2983,2.7602,1.1436,-0.313,-7.5747,2.9785,0.4285,2.3749,3.1362,-0.3217,-7.8457,1.2202,0.6534,0.994015,0,1698375088.2487,98
-0.4633,-0.893,0.0031,0.9239,1.9372,1.9351,2.4848,0.554,9.1203,1.1677,2.4691,1.1624,-0.1345,-7.4783,2.9556,0.4673,2.1515,4.2169,-0.2223,-7.8107,1.2609,0.8691,0.995351,0,1698375088.2592,98
-0.4652,-0.7138,0.0132,0.909,1.8287,1.9379,2.2808,0.6139,9.2347,0.9813,2.2524,1.1428,0.0433,-7.4551,2.9648,0.4982,1.9609,4.8526,-0.0879,-7.9284,1.2142,1.0664,0.996389,0,1698375088.2697,99
-0.4656,-0.5555,0.0229,0.9046,1.6474,1.9801,2.0303,0.6177,9.3467,0.8055,2.0645,1.0356,0.2258,-7.456,2.9754,0.5051,1.9424,4.3127,0.1111,-7.9965,1.1156,1.1439,0.997196,0,1698375088.2795,0
-0.4654,-0.4175,0.0316,0.9032,1.1921,2.0078,1.7275,0.6819,9.5094,0.6844,1.8554,0.874,0.4007,-7.4946,2.9496,0.492,2.0107,3.307,0.2247,-8.0254,1.0391,1.1908,0.997798,0,1698375088.2903,1
-0.4653,-0.3021,0.0399,0.9078,0.7148,2.008,1.3977,0.6961,9.6878,0.5671,1.6402,0.7663,0.5476,-7.5719,2.8765,0.4949,2.1405,2.4603,0.2729,-8.0609,0.9762,1.2331,0.993598,0,1698375088.3003,2
-0.4649,-0.2036,0.0474,0.8844,0.3408,2.0295,1.0521,0.5431,9.8361,0.3838,1.3956,0.6826,0.6788,-7.6483,2.8162,0.5004,2.2711,2.3446,0.2951,-8.0158,0.9685,1.1804,0.972225,0,1698375088.3101,2
-0.463,-0.0818,0.0537,0.8377,-0.0487,2.0649,0.6627,0.2674,10.2377,0.0757,1.1083,0.564,0.7756,-7.737,2.7974,0.5261,2.2686,2.76,0.3804,-7.9802,0.9713,1.1454,0.96027,0,1698375088.3191,3
-0.4584,0.0925,0.059,0.7643,-0.5028,2.2023,0.2477,0.066,10.6874,-0.5041,0.8043,0.4267,0.8175,-7.8326,2.7959,0.5735,2.1729,3.3674,0.5311,-8.0026,0.9494,1.2077,0.969119,0,1698375088.3283,4
-0.4506,0.3007,0.064,0.703,-0.9877,2.269,-0.1991,-0.092,10.4082,-0.8331,0.4719,0.2518,0.8075,-7.9361,2.8349,0.627,2.0073,3.9141,0.6864,-8.0889,0.9402,1.274,0.976014,0,1698375088.3389,5
-0.4383,0.5037,0.0694,0.6643,-1.1504,2.193,-0.6433,-0.1615,9.9103,-0.6942,0.1284,0.018,0.7844,-8.0575,2.8988,0.6751,1.7671,4.1138,0.7884,-8.1974,0.9942,1.3333,0.981369,0,1698375088.3494,6
-0.4225,0.6988,0.0758,0.6433,-1.033,2.1552,-0.972,-0.1474,9.4299,-0.3981,-0.1784,-0.2931,0.7707,-8.1808,2.9559,0.7008,1.4749,3.8956,0.8505,-8.3196,1.0865,1.3502,0.985529,0,1698375088.3599,7
-0.4051,0.8739,0.0833,0.6572,-0.9402,2.1242,-1.2206,-0.1155,9.0363,-0.1237,-0.4414,-0.6149,0.7694,-8.3019,3.0048,0.701,1.0792,3.5302,0.8647,-8.4757,1.1832,1.3232,0.988696,0,1698375088.3693,7
-0.3876,1.0525,0.0917,0.6829,-0.9098,2.1069,-1.4009,-0.1643,8.8337,-0.0822,-0.6713,-0.8367,0.7906,-8.4128,3.0541,0.6963,0.569,3.1679,0.8331,-8.6422,1.2923,1.3341,0.853143,0,1698375088.38,8
-0.3695,1.2298,0.1005,0.7027,-0.8087,2.2486,-1.5077,-0.2677,8.6752,-0.1866,-0.878,-1.0005,0.8351,-8.5302,3.1137,0.6942,0.0227,2.9232,0.7906,-8.7781,1.3813,1.3457,0.538854,0,1698375088.3893,9
-0.3521,1.3133,0.1093,0.7385,-0.5051,2.1857,-1.4995,-0.5813,8.4391,0.1242,-1.0649,-1.1464,0.903,-8.6695,3.1798,0.6841,-0.4544,2.6615,0.7449,-8.9297,1.4005,1.3243,0.209915,0,1698375088.3996,10
-0.3365,1.3482,0.1177,0.7706,-0.0989,1.9902,-1.3499,-0.7776,8.3474,0.5182,-1.2161,-1.2589,0.9804,-8.833,3.2068,0.6789,-0.8386,2.2231,0.7238,-9.1359,1.3796,1.3405,-0.059149,0,1698375088.41,11
-0.3221,1.3796,0.1254,0.7852,0.1944,1.9065,-1.1903,-0.3714,8.5249,0.446,-1.3199,-1.3455,1.0397,-9.0042,3.2203,0.6495,-1.126,1.8356,0.71,-9.2961,1.3454,1.3737,-0.268081,0,1698375088.4192,12
-0.3105,1.3211,0.1322,0.777,0.3243,1.6737,-1.0706,0.0063,9.0715,0.3312,-1.167,-1.4024,1.0712,-9.1451,3.2537,0.6025,-1.2878,1.4427,0.684,-9.3935,1.3025,1.3853,-0.430503,0,1698375088.4285,12
-0.3021,1.1798,0.1381,0.7496,0.3297,1.3812,-0.9571,0.165,9.765,0.1869,-1.0303,-1.4305,1.0787,-9.2246,3.2792,0.5696,-1.3786,0.9747,0.7072,-9.4723,1.2904,1.4299,-0.556522,0,1698375088.4394,13
-0.2966,1.003,0.1438,0.7149,0.218,1.1949,-0.771,0.0905,10.1724,-0.0646,-1.1185,-1.4268,1.0888,-9.2559,3.3094,0.5405,-1.4662,0.6146,0.773,-9.5317,1.2994,1.5236,-0.64906,0,1698375088.4497,14
-0.2948,0.8007,0.1495,0.6722,0.0741,0.9718,-0.5088,-0.2307,10.4602,-0.2592,-1.135,-1.4042,1.0974,-9.3075,3.323,0.5289,-1.5214,0.3554,0.8155,-9.592,1.2764,1.6137,-0.649908,0,1698375088.4595,15
-0.2954,0.6146,0.1544,0.6318,0.0076,0.6298,-0.2899,-0.4478,10.6175,-0.3754,-1.0617,-1.3791,1.0658,-9.4269,3.3311,0.5265,-1.4501,-0.0786,0.8469,-9.7043,1.1947,1.6725,-0.499548,0,1698375088.4702,16
-0.296,0.4626,0.159,0.5953,-0.0254,0.3445,-0.107,-0.4595,10.7343,-0.4103,-0.946,-1.2845,1.0242,-9.6165,3.3385,0.5691,-1.2677,-0.7626,0.9275,-9.8918,1.1142,1.7374,-0.302214,0,1698375088.48,17
-0.2961,0.3507,0.164,0.5829,0.0607,0.111,0.0844,-0.3658,10.7448,-0.3721,-0.7939,-1.2426,0.991,-9.8639,3.372,0.6566,-1.1338,-1.3577,0.9892,-10.1673,1.0893,1.8349,-0.16158,0,1698375088.4897,17
-0.296,0.2867,0.1698,0.5758,0.2315,-0.0592,0.2689,-0.1539,10.8677,-0.3773,-0.6732,-1.4325,0.9695,-10.1472,3.4758,0.7613,-1.0962,-2.1132,0.9613,-10.5069,1.1271,1.9758,-0.067274,0,1698375088.4998,18
-0.2958,0.2347,0.1754,0.539,0.1869,-0.1037,0.3816,0.1421,11.3825,-0.4716,-0.6886,-1.7905,0.9801,-10.4122,3.6359,0.8866,-1.0815,-3.3425,0.8715,-10.776,1.2006,2.1048,-0.003138,0,1698375088.509,19
-0.2955,0.1917,0.1796,0.4922,0.0389,-0.0693,0.4495,0.2029,11.7035,-0.3824,-0.7985,-2.1716,1.0284,-10.6557,3.8171,1.0099,-1.0573,-4.6782,0.725,-10.9613,1.3475,2.2105,0.040601,0,1698375088.5183,20
-0.2943,0.1878,0.1823,0.4379,-0.6496,0.0862,0.457,0.076,12.3019,-0.4598,-0.9103,-2.5239,1.0923,-10.8526,4.0284,1.0696,-1.0563,-5.7737,0.7885,-11.1314,1.5087,2.3055,0.066746,0,1698375088.5287,21
-0.2907,0.2247,0.1834,0.3459,-1.3974,0.2385,0.4424,-0.2387,12.8682,-0.6998,-1.0031,-2.87,1.1377,-11.0074,4.2684,1.0393,-1.0914,-6.6356,0.8191,-11.2942,1.6285,2.3496,0.084158,0,1698375088.5389,21
-0.2859,0.2748,0.1832,0.2494,-1.4762,0.1224,0.4669,-0.8351,12.7466,-0.4124,-1.0828,-3.2283,1.1482,-11.129,4.4664,0.9986,-1.1877,-7.3776,0.5659,-11.4146,1.7242,2.3203,0.036476,0,1698375088.549,22
-0.282,0.2873,0.1826,0.1703,-1.4267,-0.0572,0.5677,-1.1095,12.1961,0.1437,-1.1081,-3.5518,1.1359,-11.1737,4.549,0.9587,-1.3239,-7.913,0.3189,-11.4492,1.7601,2.2475,-0.128596,0,1698375088.5605,23
-0.2794,0.2613,0.1805,0.0649,-1.2767,-0.1371,0.7713,-1.0943,11.5938,0.5258,-1.0358,-3.8047,1.1221,-11.1737,4.5341,0.904,-1.4091,-8.2973,0.0546,-11.3997,1.7861,2.156,-0.322878,0,1698375088.5702,24
-0.278,0.2167,0.1764,-0.0793,-0.9087,-0.3517,0.9933,-1.2394,11.2884,0.9708,-0.8372,-3.8964,1.1029,-11.1421,4.4905,0.8101,-1.3425,-9.0031,-0.0688,-11.3223,1.7593,2.0421,-0.474051,0,1698375088.5792,25
-0.2774,0.1761,0.1694,-0.2414,-0.5044,-0.5729,1.1939,-1.2382,11.1573,1.4313,-0.5688,-3.7392,1.0462,-11.0933,4.4264,0.6905,-0.9822,-9.934,0.0202,-11.2177,1.7136,1.8965,-0.590536,0,1698375088.5891,26
-0.2766,0.1866,0.1595,-0.4292,-0.083,-0.6067,1.3651,-0.9401,10.8388,1.9555,-0.345,-3.341,0.8948,-11.049,4.3947,0.5684,-0.7321,-9.199,0.1593,-11.0408,1.7176,1.7176,-0.493168,0,1698375088.599,26
-0.2729,0.2617,0.1467,-0.65,-0.0566,-0.5085,1.2679,-0.1313,10.1583,2.438,-0.2521,-2.7956,0.6476,-10.8878,4.3803,0.4538,-0.7305,-7.1487,0.3073,-10.762,1.7518,1.5239,-0.374647,0,1698375088.6097,27
-0.2649,0.4276,0.1287,-0.8752,-0.2175,-0.5234,0.9274,0.6854,10.0238,2.6853,-0.3385,-2.4598,0.35,-10.5654,4.3801,0.3733,-0.7182,-5.5008,0.3874,-10.403,1.8451,1.3437,-0.339868,0,1698375088.6191,28
-0.2539,0.6231,0.108,-1.1629,0.0188,-0.5486,0.6323,0.8048,10.0497,2.817,-0.6271,-2.2237,0.0515,-10.1661,4.4361,0.3461,-0.7461,-4.1893,0.3976,-10.059,2.0069,1.1969,-0.219873,0,1698375088.6283,29
-0.2419,0.7802,0.0855,-1.5401,0.037,-0.2495,0.3962,0.7729,9.9795,2.8661,-0.9655,-1.8613,-0.1786,-9.6761,4.4688,0.411,-0.8343,-3.0351,0.3978,-9.6744,2.2071,1.0841,-0.116146,0,1698375088.6386,30
-0.2291,0.8888,0.0601,-1.8093,-0.1516,0.1831,0.2248,0.7251,10.1292,2.9625,-1.2224,-1.4324,-0.308,-9.0758,4.4796,0.4823,-1.0144,-1.7764,0.4057,-9.2381,2.4011,0.9768,-0.024428,0,1698375088.6485,31
-0.217,0.9236,0.033,-2.0383,-0.2709,0.5685,0.1206,0.4996,9.9752,3.1333,-1.4108,-0.9527,-0.3462,-8.4259,4.5184,0.481,-1.2583,-0.5039,0.4476,-8.7671,2.5638,0.8488,0.029419,0,1698375088.659,31
-0.2058,0.929,0.0044,-2.3093,-0.4735,1.0375,0.0831,0.2315,9.8284,3.3545,-1.6526,-0.3782,-0.3359,-7.8081,4.5389,0.3848,-1.5099,0.5509,0.5483,-8.3435,2.6499,0.6865,0.057147,0,1698375088.6693,32
-0.1944,0.9527,-0.0271,-2.4395,-0.6879,1.3685,0.1273,-0.0886,9.7576,3.4218,-1.9657,0.3621,-0.2801,-7.3354,4.5116,0.1877,-1.592,1.2518,0.7654,-8.1447,2.7185,0.3977,0.097111,0,1698375088.6818,33
-0.1824,0.9566,-0.0632,-2.5855,-1.0138,1.4134,0.2102,-0.4644,9.5786,3.242,-2.1501,0.8485,-0.2087,-7.0588,4.481,-0.0095,-1.6515,1.5619,0.9673,-8.0331,2.766,0.232,0.135696,0,1698375088.692,34
-0.1712,0.9504,-0.1001,-2.8317,-1.4221,1.4373,0.3428,-0.7905,9.5393,2.8961,-2.2806,1.1283,-0.212,-6.9488,4.4249,-0.1627,-1.823,1.6485,1.0773,-7.9113,2.751,0.2815,0.165392,0,1698375088.7026,35
-0.1618,0.9204,-0.1332,-2.9702,-1.6966,1.3944,0.4909,-1.171,9.5074,2.6226,-2.4927,1.5126,-0.2768,-6.9858,4.3324,-0.2431,-1.94,1.512,1.1277,-7.8991,2.7199,0.3924,0.189162,0,1698375088.7126,36
-0.1533,0.8813,-0.1631,-2.9228,-1.9532,1.2938,0.5523,-1.508,9.5321,2.4569,-2.6105,1.7958,-0.3271,-7.1628,4.2236,-0.2616,-1.9764,0.9681,1.0306,-7.9943,2.6733,0.5768,0.208052,0,1698375088.7229,36
-0.1455,0.8567,-0.1908,-2.7893,-2.1253,1.1253,0.5164,-1.751,9.7223,2.3236,-2.5402,2.043,-0.3185,-7.4382,4.1215,-0.2636,-1.9364,0.3973,0.858,-8.1515,2.5887,0.7634,0.221292,0,1698375088.7327,37
-0.1381,0.8399,-0.2165,-2.7044,-2.0707,0.8257,0.3514,-1.97,9.6739,2.2731,-2.2733,2.2913,-0.2095,-7.7502,4.0118,-0.2707,-2.029,0.1593,0.6489,-8.3598,2.4369,1.1457,0.212838,0,1698375088.7425,38
-0.131,0.8419,-0.2402,-2.654,-1.8603,0.4771,0.0408,-2.0668,9.3853,2.3167,-1.9059,2.5038,-0.0158,-8.0861,3.9022,-0.3343,-1.8597,-0.0759,0.2828,-8.5556,2.3187,1.4309,0.153218,0,1698375088.7525,39
-0.1238,0.8253,-0.2618,-2.6034,-1.6492,0.1433,-0.3862,-2.0672,9.0679,2.3219,-1.6784,2.7983,0.1065,-8.3992,3.9481,-0.3815,-1.291,-0.2372,-0.0398,-8.6633,2.2235,1.364,0.053184,0,1698375088.7627,40
-0.1164,0.7997,-0.2818,-2.4868,-1.4137,-0.2259,-0.8508,-2.0397,8.7973,2.2677,-1.5912,3.1472,0.0618,-8.6025,4.047,-0.426,-0.8578,-0.0762,-0.1405,-8.7438,2.1196,1.2364,-0.039998,0,1698375088.7736,40
-0.1093,0.7622,-0.3011,-2.275,-1.0961,-0.6278,-1.2866,-2.0066,8.6782,2.2347,-1.5311,3.5359,-0.105,-8.6749,4.0632,-0.4864,-0.6867,0.2858,-0.1803,-8.7782,2.06,1.1549,-0.105349,0,1698375088.7835,41
-0.1031,0.712,-0.3191,-2.0941,-0.7846,-1.0063,-1.6644,-1.9082,8.6336,2.138,-1.3754,3.8062,-0.3207,-8.6661,4.0442,-0.4965,-0.7208,0.8013,-0.2283,-8.7373,2.0281,1.1453,-0.140853,0,1698375088.7934,42
-0.0977,0.6821,-0.3352,-1.9763,-0.5129,-1.2561,-1.9527,-1.6917,8.5292,1.8806,-1.1138,3.8713,-0.5444,-8.5939,3.9654,-0.4966,-0.7643,1.2835,-0.2843,-8.7045,1.9873,1.0869,-0.141469,0,1698375088.8033,43
-0.0924,0.6792,-0.3506,-1.8418,-0.3759,-1.3495,-2.1255,-1.4503,8.2401,1.6328,-0.851,3.9628,-0.7438,-8.4656,3.872,-0.4795,-0.7317,1.6521,-0.3295,-8.6496,1.9262,1.0695,-0.158871,0,1698375088.8138,44
-0.0867,0.6553,-0.3659,-1.7282,-0.1091,-1.7251,-2.3412,-1.3346,8.2324,1.7578,-0.407,3.9352,-0.966,-8.2073,3.7715,-0.3625,-0.5127,2.1938,-0.3995,-8.4602,1.8227,1.3213,-0.26303,0,1698375088.8254,45
-0.0799,0.638,-0.3814,-1.6943,0.12,-1.9192,-2.3685,-1.1409,8.2012,1.8405,-0.3045,3.8122,-0.9817,-8.0846,3.7027,-0.304,-0.3606,2.1879,-0.5221,-8.3633,1.7928,1.4667,-0.390965,0,1698375088.8367,45
-0.0727,0.6381,-0.396,-1.6486,0.2887,-2.0171,-2.3248,-1.0019,8.2813,1.8201,-0.2607,3.7123,-0.9369,-7.9655,3.6459,-0.2372,-0.2366,2.1117,-0.6787,-8.2373,1.7444,1.6,-0.372829,0,1698375088.8472,46
-0.0658,0.6411,-0.409,-1.5642,0.3855,-2.0642,-2.222,-0.9503,8.3916,1.7331,-0.3077,3.5887,-0.891,-7.8634,3.6249,-0.1693,-0.1539,2.0184,-0.7927,-8.1304,1.7095,1.6878,-0.254586,0,1698375088.8574,47
-0.059,0.6285,-0.4207,-1.4877,0.4361,-2.019,-2.0807,-0.8707,8.5702,1.5711,-0.4447,3.5516,-0.8553,-7.8081,3.6223,-0.0925,-0.088,1.7585,-0.8701,-8.066,1.6989,1.7424,-0.16778,0,1698375088.8686,48
-0.0524,0.6169,-0.4315,-1.3595,0.3756,-1.9259,-1.9121,-0.8107,8.8654,1.3807,-0.586,3.5295,-0.8327,-7.7746,3.6312,-0.0285,-0.0325,1.3862,-0.9251,-8.0238,1.7055,1.7965,-0.104141,0,1698375088.8805,49
-0.0453,0.6248,-0.4412,-1.2198,0.2673,-1.8399,-1.725,-0.8508,9.1133,1.2531,-0.6933,3.4732,-0.8092,-7.7525,3.6555,0.0396,0.0064,1.0083,-0.9346,-8.0118,1.7498,1.861,-0.058001,0,1698375088.8906,50
-0.0385,0.6172,-0.4493,-1.1126,0.1372,-1.7203,-1.5225,-0.8979,9.2677,1.1262,-0.7468,3.3484,-0.7773,-7.7546,3.6976,0.1168,0.028,0.6689,-0.8977,-8.0325,1.8273,1.9311,-0.024563,0,1698375088.9008,50
-0.0327,0.6105,-0.4549,-0.9771,-0.0423,-1.5942,-1.3184,-0.8455,9.3464,1.0196,-0.7602,3.1493,-0.7406,-7.7741,3.7515,0.1661,0.0065,0.51,-0.8418,-8.068,1.915,1.9896,0.001615,0,1698375088.9106,51
-0.027,0.622,-0.4593,-0.8343,-0.2167,-1.4801,-1.1206,-0.7642,9.3165,0.9239,-0.7689,2.935,-0.7053,-7.827,3.8064,0.1916,-0.0341,0.4011,-0.7736,-8.1542,1.9748,2.0446,0.023987,0,1698375088.9221,52
-0.0211,0.6243,-0.4626,-0.6979,-0.4314,-1.33,-0.9406,-0.6564,9.206,0.7294,-0.7492,2.7165,-0.6795,-7.9143,3.8536,0.2137,-0.0409,0.2074,-0.7223,-8.262,2.0181,2.0732,0.042132,0,1698375088.9318,53
-0.0157,0.5979,-0.4638,-0.54,-0.6603,-1.1777,-0.7565,-0.5213,9.1903,0.6023,-0.7263,2.5085,-0.6715,-8.0008,3.9194,0.2288,-0.0369,0.0553,-0.7081,-8.3291,2.0755,2.1118,0.01847,0,1698375088.9422,54
-0.0108,0.5778,-0.4636,-0.4009,-0.9038,-1.0773,-0.57,-0.4145,9.204,0.683,-0.7264,2.2839,-0.6848,-8.0442,4.0215,0.2475,-0.1078,0.0368,-0.657,-8.3586,2.154,2.1778,-0.037684,0,1698375088.9525,55
-0.0057,0.5445,-0.4632,-0.302,-1.0929,-1.03,-0.4064,-0.3345,9.1465,0.8739,-0.7162,2.0565,-0.7173,-8.0381,4.1233,0.274,-0.2797,0.1597,-0.5687,-8.3622,2.2281,2.19,-0.080707,0,1698375088.963,55
-0.0003,0.5052,-0.4615,-0.149,-1.296,-0.735,-0.2495,-0.188,9.1347,1.0831,-0.6956,1.8484,-0.7724,-8.0067,4.1944,0.2754,-0.4558,0.3309,-0.4865,-8.3447,2.2683,2.1287,-0.111889,0,1698375088.9735,56
0.0048,0.4915,-0.4568,0.0374,-1.7239,-0.4582,-0.062,-0.0393,9.365,1.0273,-0.7068,1.6672,-0.8612,-7.967,4.248,0.2337,-0.5653,0.5407,-0.409,-8.2894,2.2805,2.0124,-0.144069,0,1698375088.9839,57
0.0096,0.4765,-0.4473,0.2383,-2.121,-0.3702,0.1944,-0.1551,9.3814,0.7041,-0.7683,1.5026,-0.989,-7.934,4.2693,0.1574,-0.6274,0.8339,-0.3327,-8.2262,2.266,1.8977,-0.194545,0,1698375088.9949,58
0.015,0.4789,-0.433,0.5297,-1.9578,-0.1181,0.7563,-0.6475,8.0812,0.7312,-0.9033,1.0435,-1.2979,-7.9499,4.1691,-0.012,-0.7001,1.1713,-0.3226,-8.1291,2.2759,1.8504,-0.252175,0,1698375089.006,59
0.0211,0.5305,-0.4164,0.8628,-1.6312,0.0006,1.0013,-0.677,7.5905,0.882,-0.9065,0.7275,-1.4458,-8.0699,4.1115,-0.0414,-0.7602,1.0639,-0.3644,-8.1896,2.2546,1.909,-0.309845,0,1698375089.0163,60
0.0285,0.5986,-0.3983,1.0818,-1.1099,-0.1902,1.1839,-0.8711,7.4118,0.9576,-0.8314,0.3705,-1.5555,-8.2716,4.0503,-0.0266,-0.8094,0.8023,-0.4471,-8.3066,2.2175,1.9823,-0.39718,0,1698375089.0272,60
0.0378,0.6919,-0.3794,1.1742,-0.5031,-0.3461,1.2789,-1.0885,7.3418,0.9827,-0.6879,0.0266,-1.6288,-8.5029,4.031,0.0363,-0.8374,0.4577,-0.5701,-8.4448,2.1967,2.051,-0.499679,0,1698375089.0382,61
0.0487,0.8127,-0.3617,1.275,0.1097,-0.4441,1.2725,-1.1833,7.4638,0.9507,-0.5593,-0.2447,-1.6952,-8.6873,4.0435,0.1362,-0.872,0.0818,-0.7075,-8.6104,2.2089,2.1001,-0.579926,0,1698375089.0493,62
0.0602,0.9058,-0.3457,1.3413,0.7136,-0.4998,1.1585,-1.1858,7.8456,0.8287,-0.5336,-0.4273,-1.7663,-8.7955,4.0998,0.2514,-0.915,-0.3116,-0.8474,-8.8042,2.2483,2.1147,-0.645855,0,1698375089.0602,63
0.0717,0.9589,-0.3318,1.3162,1.134,-0.4775,0.9532,-0.9799,8.4578,0.7011,-0.6347,-0.5691,-1.8317,-8.8478,4.2127,0.4097,-0.9143,-0.7586,-0.9714,-9.0034,2.3264,2.1394,-0.696678,0,1698375089.0708,64
0.0821,0.9758,-0.3204,1.2353,1.3447,-0.4064,0.6932,-0.6451,9.3658,0.6277,-0.8206,-0.6682,-1.8689,-8.8927,4.3296,0.5828,-0.8541,-1.2694,-1.049,-9.1573,2.4334,2.2126,-0.683513,0,1698375089.0815,64
0.0913,0.9313,-0.311,1.1216,1.4665,-0.3189,0.4282,-0.4901,10.0791,0.6514,-1.0058,-0.74,-1.8586,-8.9682,4.4171,0.7285,-0.7827,-1.6619,-1.03,-9.2579,2.5445,2.3039,-0.563186,0,1698375089.0919,65
0.099,0.8387,-0.3035,0.9988,1.3567,-0.1239,0.1508,-0.3147,10.6585,0.6323,-1.1259,-0.87,-1.8123,-9.0682,4.4875,0.8064,-0.7792,-1.8415,-0.9394,-9.3451,2.6191,2.4623,-0.407324,0,1698375089.1016,66
0.1049,0.755,-0.298,0.8831,1.0617,0.1188,-0.1065,-0.0993,11.2598,0.5999,-1.1509,-1.138,-1.7439,-9.1713,4.5483,0.749,-0.8463,-1.8268,-0.823,-9.4623,2.6212,2.7159,-0.287969,0,1698375089.1117,67
0.1094,0.6839,-0.2932,0.8044,0.7661,0.3524,-0.308,-0.0605,11.6151,0.7046,-1.1167,-1.583,-1.6499,-9.2741,4.5542,0.5751,-1.0016,-1.7131,-0.6653,-9.6736,2.5621,2.9541,-0.236752,0,1698375089.122,68
0.113,0.6068,-0.2892,0.7319,0.4684,0.6131,-0.4773,-0.0989,12.1448,0.8234,-1.1115,-2.117,-1.53,-9.4168,4.5183,0.3815,-1.2065,-1.7117,-0.5036,-9.9438,2.4464,3.1122,-0.194054,0,1698375089.1315,69
0.1153,0.5028,-0.286,0.6547,0.1178,0.952,-0.6352,-0.0851,12.708,0.9749,-1.1849,-2.6434,-1.4019,-9.6671,4.4386,0.2255,-1.2967,-1.9202,-0.3856,-10.2304,2.3125,3.2197,-0.116399,0,1698375089.1418,69
0.1163,0.3881,-0.2829,0.5771,-0.2849,1.3473,-0.763,0.0042,13.2157,1.2204,-1.357,-3.1486,-1.288,-10.0283,4.3294,0.1214,-1.3259,-2.1956,-0.3077,-10.5156,2.2256,3.269,-0.054052,0,1698375089.1527,70
0.1164,0.2965,-0.2787,0.523,-0.5875,1.7446,-0.8571,0.0546,13.2715,1.5528,-1.5282,-3.5717,-1.1764,-10.3998,4.2035,0.0652,-1.3911,-2.3464,-0.2923,-10.7555,2.1739,3.2375,-0.00305,0,1698375089.1628,71
0.1162,0.2248,-0.2736,0.5072,-0.8242,2.2305,-0.9532,0.1707,13.0192,1.7858,-1.6125,-3.8602,-1.0694,-10.7244,4.0941,0.0014,-1.354,-2.4882,-0.3655,-10.9889,2.1401,3.1238,0.126209,0,1698375089.1727,72
0.1159,0.1721,-0.2695,0.4693,-0.8052,2.6531,-1.0475,0.2686,12.8176,1.9796,-1.6832,-3.9906,-0.9887,-10.9906,4.0602,-0.1085,-1.1386,-2.4952,-0.4608,-11.1724,2.1005,2.9459,0.318118,0,1698375089.1829,73
0.1157,0.1369,-0.2676,0.3919,-0.7419,2.9455,-1.0994,0.1127,12.4178,2.3046,-1.733,-3.9121,-0.9065,-11.1085,4.1106,-0.224,-0.7548,-2.1386,-0.5663,-11.2079,2.0433,2.7965,0.470332,0,1698375089.1929,74
0.1148,0.0715,-0.2672,0.3148,-0.7993,3.263,-1.1048,-0.2174,12.0233,2.416,-1.654,-3.5358,-0.754,-10.9872,4.2038,-0.2518,-0.207,-1.4661,-0.6806,-11.0968,2.0028,2.7463,0.588587,0,1698375089.2032,74
0.1113,-0.0738,-0.2667,0.2658,-0.5984,3.5675,-0.9445,-0.7793,11.4938,2.2264,-1.4333,-2.8719,-0.5214,-10.6854,4.2651,-0.1483,0.4358,-0.5807,-0.7541,-10.9154,1.9602,2.7625,0.680392,0,1698375089.2141,75
0.1031,-0.2983,-0.2641,0.3028,0.2241,3.2717,-0.1109,-2.3466,10.0202,2.3138,-0.7752,-1.0393,0.1397,-9.8926,3.9192,0.2315,1.9906,1.6635,-0.7989,-10.5489,1.641,2.6735,0.751695,0,1698375089.2254,76
0.0889,-0.55,-0.2565,0.4506,0.5749,2.9121,0.4743,-2.8808,9.3699,2.4047,-0.3928,-0.2665,0.5563,-9.5024,3.5098,0.3597,2.7818,2.9571,-0.7727,-10.2359,1.3555,2.6031,0.807127,0,1698375089.2361,77
0.0698,-0.7879,-0.2437,0.7,0.8379,2.505,1.0626,-3.1797,8.6465,2.517,0.1113,0.4421,1.006,-9.1312,3.0409,0.4039,3.3368,4.1715,-0.7157,-9.8923,1.0773,2.5511,0.85019,0,1698375089.2466,78
0.0472,-1.0853,-0.2282,0.9269,1.2067,1.9187,1.5434,-3.3355,8.2524,2.674,0.8829,1.1083,1.3919,-8.7581,2.5499,0.2437,3.5821,5.3593,-0.6041,-9.4754,0.7819,2.3843,0.883638,0,1698375089.2573,79
0.0229,-1.3529,-0.2122,1.0292,1.6807,1.1965,1.8589,-3.5313,8.2486,2.8758,1.9202,1.1878,1.5979,-8.4074,2.0205,-0.1712,3.6243,6.455,-0.4185,-9.0934,0.3693,2.1516,0.909618,0,1698375089.2683,79
-0.0027,-1.5709,-0.1981,1.0508,1.7966,0.6305,1.9941,-3.4017,8.3205,2.8933,3.0541,1.1165,1.5645,-8.2542,1.5368,-0.6673,3.7653,7.3017,-0.1253,-8.8012,-0.1946,1.881,0.929798,0,1698375089.2801,80
-0.0311,-1.8694,-0.1858,1.0545,1.7161,0.0451,1.9951,-2.9985,8.6032,2.8161,3.9637,0.8269,1.3817,-8.4054,1.1807,-1.1771,4.3172,7.5682,0.2226,-8.5972,-0.7858,1.6163,0.945472,0,1698375089.2906,81
-0.0606,-2.1496,-0.1748,1.0569,1.6894,-0.5595,1.874,-2.6062,8.9303,2.7243,4.476,-0.0748,1.1128,-8.7182,0.9059,-1.6392,5.217,7.0313,0.4222,-8.4949,-1.2532,1.4038,0.957646,0,1698375089.3007,82
-0.09,-2.3924,-0.165,1.03,1.4557,-1.0727,1.647,-2.1288,9.5061,2.4709,4.8764,-0.9455,0.8118,-8.9995,0.7572,-1.877,6.1427,6.0322,0.4442,-8.4844,-1.5292,1.2064,0.967096,0,1698375089.3105,83
-0.1199,-2.6139,-0.1562,1.0038,1.2221,-1.6144,1.3489,-1.649,10.1846,2.2792,5.386,-1.1779,0.6915,-9.1666,0.7491,-1.8799,6.9068,4.4773,0.4136,-8.5655,-1.5589,1.0426,0.894581,0,1698375089.3203,83
-0.1497,-2.7173,-0.1477,0.9796,0.889,-2.0761,0.9511,-1.1554,10.7158,2.1485,5.9531,-0.6544,0.6286,-9.1683,0.8904,-1.632,7.4373,2.4992,0.3574,-8.7004,-1.3593,0.8937,0.793007,0,1698375089.3306,84
-0.1803,-2.766,-0.1392,0.9541,0.5757,-2.5224,0.5825,-0.8127,10.9392,2.0408,6.5938,0.093,0.6855,-9.1085,1.1252,-1.2524,7.6789,0.7088,0.3002,-8.8509,-0.9776,0.7522,0.776531,0,1698375089.341,85
-0.2109,-2.8505,-0.1308,0.9111,0.3375,-2.8751,0.3149,-0.5506,10.7052,2.0767,7.2219,0.5449,0.8864,-9.0789,1.469,-0.9233,7.7745,-0.7671,0.2173,-9.0068,-0.4887,0.6091,0.804491,0,1698375089.3513,86
-0.2399,-2.9087,-0.1223,0.8624,0.0409,-3.0817,0.171,-0.2349,10.4729,2.0364,7.5359,0.7561,1.0656,-9.0029,1.9277,-0.6386,7.8411,-1.8325,0.0993,-9.1407,0.0317,0.5041,0.84203,0,1698375089.3614,87
-0.2668,-2.8369,-0.1139,0.8226,-0.0327,-3.2959,0.1913,-0.152,10.011,2.1381,7.5821,0.9585,1.364,-8.9017,2.3441,-0.3966,7.7488,-2.32,-0.006,-9.2242,0.5203,0.4159,0.874579,0,1698375089.3714,88
-0.2917,-2.7301,-0.1062,0.7893,-0.0848,-3.4026,0.3434,-0.0871,9.4878,2.229,7.4944,1.2938,1.6674,-8.7686,2.7418,-0.2169,7.4274,-2.253,-0.0844,-9.2636,0.9375,0.3032,0.900507,0,1698375089.3814,88
-0.3147,-2.6184,-0.0985,0.792,-0.0869,-3.3772,0.5962,0.0609,9.0446,2.184,7.3206,1.8082,1.8443,-8.6208,3.07,-0.1776,6.9912,-1.7561,-0.0958,-9.2293,1.2418,0.1179,0.920609,0,1698375089.3917,89
-0.336,-2.4618,-0.0912,0.7886,-0.0511,-3.2664,0.8949,0.2467,8.8153,2.1272,7.1337,2.1379,1.8121,-8.5779,3.2872,-0.2815,6.591,-0.9381,-0.0348,-9.1799,1.395,-0.0966,0.935338,0,1698375089.4016,90
-0.3556,-2.3049,-0.0842,0.7648,0.1166,-3.1368,1.241,0.3587,8.6484,2.0433,6.9953,2.1809,1.5417,-8.5804,3.4434,-0.5118,6.3739,0.0697,0.0509,-9.1669,1.3772,-0.1854,0.944118,0,1698375089.4124,91
-0.3742,-2.1641,-0.0769,0.7273,0.4675,-3.0327,1.5968,0.3112,8.4305,2.0903,6.9184,2.107,1.1953,-8.6371,3.4906,-0.7712,6.4353,1.0178,0.1345,-9.1432,1.2425,-0.0959,0.943862,0,1698375089.4228,92
-0.3917,-2.0131,-0.0701,0.7009,0.717,-2.8582,1.8978,0.2765,8.4933,2.0857,6.9542,1.5638,0.8674,-8.8298,3.4643,-0.9245,6.6663,1.7039,0.1688,-9.0668,1.097,0.1335,0.932371,0,1698375089.4324,93
-0.4065,-1.8247,-0.0637,0.6991,0.8018,-2.5624,2.1283,0.3743,8.5846,1.8579,7.1064,0.853,0.611,-9.0054,3.4195,-0.914,6.8363,2.0758,0.1289,-8.9569,0.9773,0.4233,0.916255,0,1698375089.4427,93
-0.4196,-1.645,-0.0575,0.6792,0.8395,-2.2661,2.2612,0.6387,8.6865,1.4941,7.1079,0.4364,0.4366,-9.0731,3.3323,-0.7939,6.7885,2.0502,0.0409,-8.8703,0.906,0.6891,0.909554,0,1698375089.4523,94
-0.4314,-1.4899,-0.0514,0.6762,0.7341,-2.025,2.2887,0.8692,8.953,1.1551,6.7119,0.273,0.3131,-9.0709,3.2755,-0.6442,6.4872,1.7346,-0.0531,-8.8209,0.9356,0.8875,0.917355,0,1698375089.463,95
-0.4424,-1.3681,-0.0446,0.6845,0.6438,-1.9024,2.258,0.939,9.1191,1.0346,5.8785,0.2254,0.2112,-8.962,3.2117,-0.476,6.0155,1.3293,-0.1388,-8.7934,1.0382,0.9724,0.931696,0,1698375089.4734,96
-0.4525,-1.2402,-0.0367,0.7014,0.5685,-1.8345,2.1362,0.9522,9.1468,1.0022,4.8461,-0.0392,0.109,-8.7731,3.072,-0.3379,5.4624,0.8832,-0.2157,-8.7561,1.1484,0.9699,0.945703,0,1698375089.4836,97
-0.4608,-1.0903,-0.0284,0.7266,0.3225,-1.6854,1.9231,1.0411,9.2507,0.8,3.7484,-0.6452,-0.007,-8.5698,3.0399,-0.2518,4.9289,0.3518,-0.2677,-8.7151,1.2789,0.9111,0.957536,0,1698375089.4936,98
-0.4671,-0.9355,-0.02,0.7547,0.0957,-1.5773,1.6545,1.0906,9.2485,0.5824,2.7331,-1.271,-0.0937,-8.383,3.1709,-0.202,4.5238,-0.147,-0.2595,-8.7019,1.4353,0.7782,0.966967,0,1698375089.5036,98
-0.4708,-0.7696,-0.0114,0.8214,-0.078,-1.6067,1.3487,0.9463,9.3195,0.7452,1.9785,-1.7127,-0.1278,-8.2679,3.3685,-0.1743,4.2212,-0.5294,-0.2131,-8.715,1.5951,0.6269,0.974338,0,1698375089.514,99
-0.472,-0.6023,-0.0026,0.9026,-0.2086,-1.5827,1.0293,0.9071,9.1534,1.0824,1.4265,-1.9596,-0.1262,-8.2081,3.5357,-0.1773,3.9579,-0.8477,-0.172,-8.7473,1.725,0.5308,0.980066,0,1698375089.5236,0
-0.472,-0.4647,0.0063,0.9468,-0.3765,-1.4915,0.7157,0.9981,8.9898,1.0665,1.0719,-2.0575,-0.0977,-8.1595,3.6019,-0.2021,3.7254,-1.1256,-0.14,-8.7764,1.8134,0.463,0.984511,0,1698375089.5337,1
-0.4717,-0.3581,0.0152,0.946,-0.6097,-1.5048,0.1732,0.9426,8.9221,0.7634,0.8771,-2.3492,-0.0297,-8.1558,3.6352,-0.0467,3.2676,-1.3972,-0.1322,-8.7552,1.9069,0.4026,0.987932,0,1698375089.5457,2
-0.4711,-0.2691,0.0249,0.9235,-0.6097,-1.5048,0.1732,0.9426,8.9221,0.7634,0.8771,-2.3492,-0.0297,-8.1558,3.6352,-0.0467,3.2676,-1.3972,-0.1322,-8.7552,1.9069,0.4026,0.990541,0,1698375089.5557,3
-0.4697,-0.1668,0.0346,0.8841,-1.6951,-1.261,-0.3794,1.1581,9.8169,0.2121,0.9128,-1.734,0.036,-8.1131,3.5777,0.3186,2.3478,-1.649,-0.0297,-8.7566,1.9105,0.5801,0.942755,0,1698375089.5677,3
-0.4649,0.0267,0.0428,0.8159,-2.12,-0.975,-0.8634,1.2414,10.6826,-0.5764,0.8305,-1.4256,0.1084,-8.0488,3.5562,0.4324,1.7376,-1.7199,0.0856,-8.7088,1.885,0.67,0.8042,0,1698375089.5785,4
-0.4553,0.275,0.0498,0.7529,-2.0759,-0.7929,-1.3092,1.3339,10.5007,-0.8484,0.568,-1.0037,0.2312,-7.9698,3.527,0.4909,1.0932,-1.7127,0.2705,-8.6391,1.8647,0.7497,0.64569,0,1698375089.5896,5
-0.4413,0.537,0.0562,0.7138,-1.8277,-0.7562,-1.5089,1.4511,9.8936,-0.5168,0.2321,-0.618,0.3913,-7.9106,3.4599,0.509,0.5466,-1.6603,0.4415,-8.6111,1.7866,0.8368,0.524867,0,1698375089.6022,6
-0.4226,0.8334,0.0636,0.7135,-1.514,-0.6306,-1.6751,1.5668,9.2305,-0.1863,-0.08,-0.5988,0.6042,-7.9511,3.3816,0.4742,0.1733,-1.6689,0.5742,-8.6072,1.6848,0.9549,0.433511,0,1698375089.6149,7
-0.4008,1.0818,0.0736,0.7529,-1.0712,-0.3107,-1.7821,1.4687,8.8754,0.5688,-0.6182,-0.4,1.0091,-8.141,3.2122,0.6057,-0.3278,-2.113,0.8126,-8.6493,1.5126,1.2237,0.36617,0,1698375089.6267,8
-0.3804,1.226,0.0847,0.8048,-0.8301,-0.1252,-1.7348,1.2915,9.061,0.6553,-0.9168,-0.6544,1.2171,-8.4995,3.2729,0.108,-0.6576,-2.4535,0.8796,-8.7008,1.4867,1.3838,0.316866,0,1698375089.6379,8
-0.3634,1.2552,0.0959,0.8823,-0.474,0.0095,-1.6503,1.027,9.3139,0.6359,-1.7615,-1.0217,1.6658,-8.8167,3.3296,-0.2927,-1.0442,-2.8339,0.8847,-8.783,1.4719,1.5294,0.269125,0,1698375089.6484,9
-0.3493,1.184,0.1069,0.9426,-0.0654,0.0579,-1.5599,0.8717,9.4427,0.7478,-2.3477,-1.3077,1.7092,-9.0273,3.2876,-0.0304,-1.4305,-3.1745,0.8444,-8.8913,1.4294,1.6463,0.221748,0,1698375089.6613,10
-0.3371,1.0882,0.118,0.9475,0.2741,0.1074,-1.4642,0.881,9.6748,0.8927,-2.4033,-0.7408,1.2129,-9.3173,3.3317,0.1774,-1.7519,-3.4655,0.7448,-9.0163,1.4106,1.7323,0.186016,0,1698375089.6736,11
-0.3271,0.987,0.1286,0.9032,0.4893,0.1842,-1.3651,0.8484,9.9409,1.0147,-2.1372,-0.2298,0.9911,-9.5615,3.2371,0.0851,-2.0246,-3.781,0.5858,-9.1264,1.3976,1.828,0.159468,0,1698375089.684,12
-0.3212,0.8502,0.1368,0.8378,0.578,0.2516,-1.2805,0.7654,10.143,1.073,-1.5939,0.1135,0.9423,-9.66,3.2497,-0.1039,-2.3028,-4.2084,0.4145,-9.2294,1.4059,1.964,0.05516,0,1698375089.6945,13
-0.3184,0.705,0.1428,0.792,0.485,0.3618,-1.1977,0.699,10.45,0.9833,-1.7079,0.6383,0.4996,-9.7197,3.3218,-0.1074,-2.5411,-4.4603,0.2737,-9.3176,1.4107,2.0833,-0.126525,0,1698375089.7038,14
-0.3174,0.5586,0.1481,0.7666,0.3284,0.5309,-1.0576,0.5897,10.6443,0.7969,-2.5353,0.9633,0.2862,-9.7498,3.1417,-0.2475,-2.7023,-4.2179,0.1627,-9.361,1.3939,2.1821,-0.283625,0,1698375089.7132,14
-0.3174,0.4252,0.153,0.7424,0.217,0.71,-0.8806,0.4928,10.7204,0.558,-3.2964,1.0556,0.4621,-9.6636,3.1297,-0.1896,-2.8292,-3.6453,0.0356,-9.3787,1.4247,2.3441,-0.367809,0,1698375089.7234,15
-0.3176,0.3301,0.1573,0.6858,0.3043,0.8568,-0.5974,0.1938,10.3713,0.3153,-3.5621,-0.0428,0.4334,-9.6544,3.3897,0.0634,-2.9508,-3.0199,-0.0546,-9.3935,1.4679,2.5595,-0.328177,0,1698375089.733,16
-0.3176,0.2423,0.1614,0.6196,0.4011,1.1234,-0.3135,0.2585,10.0233,0.0725,-3.546,-0.821,0.2816,-9.6934,3.5681,0.2489,-3.2216,-2.5035,0.0082,-9.4521,1.5131,2.8265,-0.220988,0,1698375089.7424,17
-0.3176,0.1735,0.166,0.5741,0.3331,1.4915,-0.0887,0.7217,10.2241,0.0194,-3.525,-0.9269,0.168,-9.7355,3.6554,0.5186,-3.6902,-2.1262,0.2437,-9.6082,1.6213,3.1106,-0.123402,0,1698375089.7521,18
-0.3175,0.1333,0.1704,0.5281,0.3954,1.6478,0.1438,0.9952,10.5196,0.0428,-3.53,-1.3407,0.1257,-9.8257,3.8152,0.7746,-4.2723,-1.9491,0.5195,-9.8051,1.7651,3.309,-0.142946,0,1698375089.7622,19
-0.3164,0.1386,0.1722,0.4223,0.4923,1.7633,0.333,1.152,11.3668,-0.2121,-3.5807,-1.691,0.1389,-9.873,3.9895,0.9782,-4.9128,-1.987,0.7311,-9.9706,1.8905,3.3889,-0.297065,0,1698375089.7718,19
-0.3129,0.2112,0.172,0.2897,0.3963,2.1394,0.5114,1.1954,12.0572,-0.4326,-3.8289,-2.0254,0.1611,-9.9079,4.2206,1.1086,-5.4785,-2.1852,0.8427,-10.1513,2.0646,3.4103,-0.453954,0,1698375089.7815,20
-0.3073,0.31,0.1716,0.2046,0.3132,2.6863,0.6134,1.3415,12.0314,-0.2048,-4.2833,-2.4828,0.1758,-9.9098,4.4191,1.2008,-5.8105,-2.2991,0.9003,-10.3207,2.2356,3.3481,-0.57587,0,1698375089.7908,21
-0.301,0.4037,0.1704,0.1016,0.0688,3.1545,0.6917,1.2291,11.8103,0.287,-4.7249,-2.8764,0.2997,-9.9047,4.4767,1.2283,-5.8783,-2.0782,0.9341,-10.4256,2.3209,3.1963,-0.670566,0,1698375089.8003,22
-0.2953,0.4405,0.1666,-0.0562,-0.2309,3.4884,0.8224,0.8606,11.6026,0.5441,-5.0534,-3.2247,0.4598,-10.1169,4.4601,1.1585,-5.8023,-1.6425,0.9287,-10.4969,2.3094,3.0271,-0.744119,0,1698375089.8098,23
-0.2912,0.3905,0.1603,-0.2169,-0.1228,3.5798,0.9368,0.3816,11.4698,0.9227,-5.2207,-3.4979,0.5595,-10.4889,4.4297,1.0017,-5.6333,-1.2257,0.8913,-10.5585,2.1561,2.8262,-0.801249,0,1698375089.8195,24
-0.29,0.2896,0.1509,-0.4227,0.4358,3.3492,1.052,0.0107,10.9507,1.3832,-5.1496,-3.6367,0.6215,-10.8596,4.4575,0.7919,-5.3939,-0.9445,0.7643,-10.5683,1.9467,2.6121,-0.845625,0,1698375089.8295,25
-0.2906,0.1997,0.1386,-0.6754,0.9941,3.0882,1.196,-0.1635,10.2662,1.8682,-4.8745,-3.6236,0.6536,-11.0914,4.4638,0.5406,-5.121,-0.8667,0.5608,-10.5204,1.726,2.4269,-0.880092,0,1698375089.8389,25
-0.2905,0.1504,0.1251,-0.8486,1.0502,3.1352,1.2695,0.1122,10.0985,2.0944,-4.297,-3.6338,0.4986,-11.1512,4.3501,0.2902,-4.8221,-1.0219,0.3542,-10.4412,1.5268,2.2865,-0.906864,0,1698375089.8482,26
-0.2886,0.1678,0.1092,-0.9881,0.6277,3.0865,1.2125,0.2806,11.3523,1.5896,-3.6746,-3.5642,0.2019,-10.9782,4.1388,0.1447,-4.5447,-1.3044,0.1749,-10.3369,1.4127,2.1392,-0.927654,0,1698375089.8583,27
-0.2831,0.3301,0.0897,-1.179,0.2338,3.0461,1.0642,-0.2746,12.2103,1.2453,-3.3428,-3.2545,-0.0874,-10.6174,3.9132,0.1186,-4.331,-1.4871,0.0067,-10.1584,1.404,1.9326,-0.943732,0,1698375089.8684,28
-0.2728,0.5702,0.0665,-1.4756,0.0566,3.3906,0.7598,-0.4725,12.0217,1.3238,-3.3177,-3.0991,-0.4195,-10.0374,3.5172,0.11,-4.2127,-1.4313,-0.1435,-9.8954,1.497,1.6655,-0.955687,0,1698375089.8784,29
-0.2596,0.7581,0.0402,-1.8128,0.0349,3.7408,0.3691,-0.3972,11.6256,1.7528,-3.8905,-2.9887,-0.6953,-9.3911,3.2208,0.0614,-4.1788,-1.1494,-0.2167,-9.6446,1.6672,1.385,-0.946709,0,1698375089.8886,30
-0.246,0.8751,0.0118,-2.1116,0.156,3.9693,0.0998,-0.552,11.1859,2.3036,-4.6984,-2.5885,-0.8184,-8.8999,3.3456,0.0001,-4.1797,-0.7268,-0.1995,-9.4314,1.869,1.1349,-0.831464,0,1698375089.8987,31
-0.2333,0.9263,-0.018,-2.4277,0.2723,4.0275,-0.0106,-0.8302,11.1058,2.6338,-4.4133,-2.6577,-0.3507,-8.3259,3.2006,-1.0984,-4.1932,-0.211,-0.1213,-9.222,2.0556,0.8863,-0.552446,0,1698375089.9083,31
-0.222,0.9383,-0.0482,-2.6247,0.1121,4.1017,0.0392,-1.1548,11.1732,2.7412,-3.4385,-2.2393,0.2742,-7.2894,3.4044,-1.817,-4.2429,0.2467,0.0161,-9.0435,2.2682,0.7566,-0.262854,0,1698375089.9187,32
-0.2116,0.9253,-0.0783,-2.7435,-0.3712,4.2198,0.2261,-1.4591,11.2966,2.6514,-3.6077,-1.0656,0.2074,-6.6396,3.9912,-1.5588,-4.2773,0.4139,0.1859,-9.0035,2.4694,0.7897,-0.057099,0,1698375089.9286,33
-0.2013,0.9334,-0.1087,-2.8796,-0.7439,4.1233,0.4438,-1.8392,10.9013,2.6546,-4.9347,0.123,-0.0286,-6.8086,4.2037,-1.438,-4.2639,0.2668,0.3408,-9.0762,2.5878,0.8665,0.129485,0,1698375089.9389,34
-0.1905,0.956,-0.1389,-2.8628,-1.0122,3.8829,0.6111,-2.1339,10.5498,2.5769,-5.8307,1.0002,-0.165,-7.1666,4.3921,-1.0309,-4.2373,-0.0938,0.4653,-9.1893,2.6709,0.997,0.290774,0,1698375089.9484,35
-0.1788,0.983,-0.1681,-2.8136,-1.0654,3.5983,0.6669,-2.2866,10.1715,2.3875,-5.695,0.8746,-0.3656,-7.6235,4.5282,-0.6598,-4.1902,-0.5647,0.5485,-9.3335,2.7279,1.1921,0.359563,0,1698375089.9586,36
-0.1665,1.0399,-0.1951,-2.8059,-1.0668,3.3396,0.5603,-2.3109,9.6521,2.2708,-5.1968,0.6654,-0.4813,-7.9545,4.566,-0.3471,-4.1042,-1.0038,0.5883,-9.4407,2.7153,1.4041,0.360003,0,1698375089.9701,36
-0.1528,1.1213,-0.2205,-2.7528,-0.974,3.022,0.3079,-2.2202,9.3227,2.1922,-4.6691,0.8599,-0.4442,-8.1847,4.5302,-0.114,-3.9335,-1.2809,0.5766,-9.4823,2.6315,1.5733,0.358598,0,1698375089.9791,37
-0.1395,1.1755,-0.2438,-2.6219,-0.7162,2.6168,-0.0952,-2.1257,9.1358,2.1058,-4.1962,1.2428,-0.3353,-8.361,4.4204,0.009,-3.6475,-1.3658,0.5327,-9.4355,2.4926,1.6775,0.352231,0,1698375089.9899,38
-0.1259,1.2293,-0.2643,-2.4342,-0.3967,2.17,-0.6111,-2.1078,9.0285,2.113,-3.9082,1.6766,-0.2967,-8.3764,4.2727,0.0465,-3.2864,-1.2979,0.4772,-9.2845,2.3093,1.745,0.339174,0,1698375089.9992,39
-0.1119,1.3189,-0.2836,-2.2811,-0.0641,1.7147,-1.1456,-2.071,8.8782,2.1388,-3.7577,2.2427,-0.3136,-8.2387,4.0736,0.0631,-2.9318,-1.1387,0.4162,-9.044,2.1053,1.7761,0.318697,0,1698375090.0093,40
-0.0986,1.3475,-0.3015,-2.1383,0.23,1.2767,-1.6375,-1.9577,8.6435,2.1255,-3.5165,2.6577,-0.2867,-8.0643,3.8163,0.0498,-2.6146,-0.9084,0.3654,-8.7457,1.9125,1.7989,0.237992,0,1698375090.02,41
-0.0846,1.3192,-0.3191,-2.0063,0.4388,0.8572,-2.0315,-1.8397,8.3835,2.0494,-3.0913,2.6392,-0.2624,-7.8856,3.5991,0.0446,-2.4083,-0.6538,0.3422,-8.4517,1.7196,1.8559,0.092469,0,1698375090.0299,42
-0.0716,1.2761,-0.335,-1.903,0.5891,0.5067,-2.3077,-1.6634,8.4111,1.8818,-2.5787,2.7186,-0.2852,-7.7308,3.4408,0.075,-2.2523,-0.4909,0.3505,-8.171,1.5528,1.8737,-0.081991,0,1698375090.0392,42
-0.0601,1.2235,-0.3498,-1.7968,0.7774,0.1296,-2.4686,-1.6218,8.3929,1.8813,-2.0868,2.9541,-0.3405,-7.6033,3.3125,0.1291,-2.2036,-0.2128,0.3868,-7.9543,1.4193,1.9036,-0.269171,0,1698375090.0501,43
-0.0481,1.2212,-0.3655,-1.7144,0.7728,-0.1266,-2.5287,-1.6136,8.377,1.837,-1.6544,2.9606,-0.3596,-7.4308,3.2161,0.1863,-2.2996,0.1831,0.4628,-7.7657,1.3113,1.9428,-0.429913,0,1698375090.0598,44
-0.0364,1.2096,-0.3799,-1.6215,0.6926,-0.2004,-2.4732,-1.4866,8.2526,1.6695,-1.4303,2.7654,-0.3531,-7.3313,3.1358,0.2503,-2.2786,0.3654,0.4749,-7.5409,1.2515,1.9621,-0.556442,0,1698375090.0703,45
-0.0255,1.1333,-0.3933,-1.5186,0.718,-0.3625,-2.3406,-1.5,7.9818,1.6709,-1.3303,2.6112,-0.3293,-7.2654,3.0534,0.2888,-2.2317,0.5606,0.4221,-7.3219,1.2136,2.0062,-0.655229,0,1698375090.0799,46
-0.0152,1.0732,-0.4059,-1.4525,0.731,-0.5642,-2.1737,-1.6264,7.9184,1.6418,-1.2228,2.6491,-0.2605,-7.1283,2.9881,0.2823,-2.3393,0.702,0.3376,-7.1764,1.197,2.0399,-0.732197,0,1698375090.0894,47
-0.006,1.0525,-0.4165,-1.3973,0.6405,-0.663,-1.9759,-1.715,7.9571,1.4669,-1.1887,2.7774,-0.2548,-7.0428,2.9844,0.2874,-2.4433,0.6959,0.2038,-7.0922,1.211,2.0444,-0.79199,0,1698375090.0993,47
0.0025,1.0309,-0.4266,-1.3275,0.5608,-0.7235,-1.766,-1.7485,7.939,1.2708,-1.2372,2.9793,-0.3279,-7.0136,3.0328,0.3058,-2.4925,0.7381,0.0948,-7.018,1.257,2.0613,-0.838432,0,1698375090.1092,48
0.0106,0.9742,-0.435,-1.222,0.4393,-0.791,-1.5748,-1.6649,8.0052,1.1413,-1.3636,3.2384,-0.4359,-7.0412,3.1044,0.3249,-2.5027,0.6626,0.0092,-6.9965,1.321,2.1121,-0.874505,0,1698375090.1201,49
0.0187,0.9211,-0.4418,-1.0932,0.1906,-0.8383,-1.3914,-1.4667,8.2856,0.9768,-1.4915,3.3757,-0.5819,-7.1465,3.1766,0.358,-2.4858,0.414,-0.0555,-7.0506,1.3881,2.1962,-0.902525,0,1698375090.1298,50
0.0263,0.8784,-0.4464,-0.9366,-0.0076,-0.9057,-1.1842,-1.3621,8.6189,0.8185,-1.6079,3.1569,-0.7311,-7.2922,3.2543,0.3975,-2.4813,0.0129,-0.0845,-7.1731,1.4608,2.3235,-0.924288,0,1698375090.139,51
0.033,0.8584,-0.4478,-0.7442,-0.1531,-0.9828,-0.978,-1.3958,8.8575,0.713,-1.7154,2.6153,-0.8275,-7.4406,3.3403,0.4114,-2.3618,-0.4503,-0.0993,-7.3398,1.5229,2.4606,-0.941192,0,1698375090.1484,52
0.0398,0.8433,-0.4469,-0.5475,-0.3462,-0.9855,-0.7736,-1.3303,8.891,0.5372,-1.7878,1.9629,-0.8597,-7.5621,3.4218,0.4003,-2.1319,-0.851,-0.1262,-7.5006,1.5821,2.6139,-0.954322,0,1698375090.1599,53
0.0471,0.8027,-0.4452,-0.3759,-0.6419,-0.9723,-0.5952,-1.1653,8.8822,0.4047,-1.8261,1.3522,-0.848,-7.639,3.492,0.3975,-1.8782,-1.1452,-0.1581,-7.6309,1.6358,2.7437,-0.964521,0,1698375090.1693,53
0.0544,0.7798,-0.4423,-0.1851,-0.8417,-0.9595,-0.4448,-1.177,8.919,0.4225,-1.8159,0.9059,-0.8151,-7.6689,3.5357,0.4084,-1.6259,-1.2408,-0.2042,-7.7486,1.6326,2.8153,-0.972442,0,1698375090.179,54
0.061,0.7419,-0.4361,0.0551,-0.835,-1.0757,-0.2495,-1.3106,8.5731,0.5813,-1.7295,0.6437,-0.7913,-7.6918,3.5685,0.4132,-1.383,-1.1181,-0.2673,-7.8454,1.5919,2.8573,-0.978399,0,1698375090.1892,55
0.0674,0.7006,-0.4254,0.3545,-0.835,-1.2367,-0.0015,-1.278,7.8731,0.6904,-1.607,0.5423,-0.7514,-7.7689,3.5771,0.4377,-1.1568,-0.8942,-0.3308,-7.9037,1.5713,2.8956,-0.965889,0,1698375090.1994,56
0.0745,0.704,-0.4108,0.6835,-0.8255,-1.2577,0.2721,-1.2343,7.3847,0.5969,-1.5264,0.4413,-0.6617,-7.8884,3.5675,0.4894,-0.9888,-0.6777,-0.3742,-7.9472,1.5865,2.9269,-0.934033,0,1698375090.2088,57
0.0817,0.7245,-0.3948,0.9919,-0.6247,-1.3082,0.5161,-1.3561,7.2729,0.4585,-1.3487,0.23,-0.6397,-8.0278,3.5633,0.5314,-0.8489,-0.5206,-0.424,-8.0124,1.6005,2.9755,-0.914759,0,1698375090.2186,58
0.0895,0.766,-0.3779,1.1952,-0.2489,-1.4156,0.7099,-1.5029,7.1408,0.559,-1.0232,0.0454,-0.6934,-8.1812,3.5632,0.5587,-0.7326,-0.4965,-0.4943,-8.0784,1.6194,3.0577,-0.917025,0,1698375090.2289,58
0.0991,0.8037,-0.3602,1.2868,0.2415,-1.51,0.8664,-1.5838,6.9731,0.7373,-0.6349,-0.1637,-0.6788,-8.3006,3.5629,0.5521,-0.6653,-0.5818,-0.5719,-8.1545,1.6763,3.103,-0.92791,0,1698375090.2383,59
0.109,0.8078,-0.3434,1.3183,0.7997,-1.6175,0.9556,-1.6728,7.0935,0.7953,-0.225,-0.3311,-0.5917,-8.4342,3.5776,0.5309,-0.6147,-0.712,-0.6679,-8.2716,1.7373,3.1065,-0.930941,0,1698375090.2488,60
0.1185,0.8162,-0.3281,1.284,1.3603,-1.7623,0.9694,-1.7128,7.4858,0.7265,0.1436,-0.4049,-0.4984,-8.6198,3.6301,0.5198,-0.543,-0.8881,-0.7638,-8.44,1.7579,3.1172,-0.928724,0,1698375090.2585,61
0.1271,0.8376,-0.315,1.242,1.7275,-1.9251,0.9001,-1.634,8.1259,0.6051,0.4742,-0.5518,-0.4507,-8.7813,3.7079,0.4987,-0.3731,-1.1041,-0.8912,-8.624,1.7446,3.142,-0.923275,0,1698375090.2684,62
0.1343,0.8115,-0.3045,1.1659,1.7963,-1.9663,0.7661,-1.4517,8.9597,0.4609,0.766,-0.6675,-0.4417,-8.8924,3.7664,0.5103,-0.035,-1.4219,-1.0344,-8.7812,1.7035,3.1865,-0.844444,0,1698375090.2784,63
0.1401,0.7319,-0.2971,1.0322,1.8241,-1.9165,0.5854,-1.1885,9.596,0.3481,1.0471,-0.829,-0.439,-8.9623,3.7963,0.5645,0.4058,-1.8059,-1.1507,-8.8965,1.6606,3.2659,-0.714373,0,1698375090.2884,64
0.1446,0.6409,-0.2929,0.8713,1.7861,-1.9451,0.3504,-0.8769,10.0377,0.3754,1.2331,-1.1027,-0.4455,-8.9939,3.8639,0.6766,0.8069,-2.1332,-1.2454,-8.9797,1.6768,3.38,-0.590067,0,1698375090.2984,64
0.1485,0.5639,-0.2916,0.6914,1.6058,-1.9077,0.0921,-0.6643,10.4537,0.3784,1.2165,-1.3025,-0.4675,-9.0251,4.0202,0.8676,1.0453,-2.3286,-1.2405,-9.1255,1.7494,3.4862,-0.458319,0,1698375090.3091,65
0.1518,0.4931,-0.2915,0.5421,1.4546,-1.7364,-0.1427,-0.5462,10.7591,0.4206,1.0136,-1.4645,-0.4949,-9.1582,4.254,1.058,1.1085,-2.5426,-1.1463,-9.4045,1.8406,3.5612,-0.342667,0,1698375090.3199,66
0.1537,0.403,-0.2914,0.4273,1.3559,-1.5768,-0.377,-0.3502,11.1536,0.6543,0.66,-1.737,-0.5204,-9.4585,4.5111,1.189,1.1073,-2.9704,-1.0681,-9.7699,1.9168,3.6227,-0.253872,0,1698375090.3295,67
0.1543,0.313,-0.2905,0.3644,1.2051,-1.4376,-0.6477,-0.2731,11.8512,0.8658,0.2848,-2.1045,-0.5146,-9.8532,4.6746,1.2664,1.0544,-3.5771,-1.0227,-10.1247,1.9939,3.7069,-0.188069,0,1698375090.3393,68
0.1541,0.2398,-0.288,0.3608,1.1264,-1.2945,-0.9269,-0.6101,12.1584,1.322,0.1024,-2.4582,-0.4564,-10.2619,4.7308,1.2801,0.929,-4.01,-1.0283,-10.4292,2.0401,3.766,-0.140197,0,1698375090.35,69
0.1538,0.1824,-0.2835,0.3855,1.0183,-0.9481,-1.1966,-0.7374,11.967,1.7241,0.1363,-2.6638,-0.3772,-10.6616,4.7269,1.2514,0.8597,-3.9449,-1.1145,-10.7085,2.0145,3.7856,-0.103544,0,1698375090.3605,69
0.1532,0.1155,-0.2777,0.4381,0.9301,-0.5965,-1.4905,-0.6634,11.7093,1.8563,0.2018,-2.6651,-0.3199,-11.0322,4.7009,1.189,0.8561,-3.4707,-1.2309,-10.943,1.9976,3.8103,-0.072808,0,1698375090.3697,70
0.151,0.0035,-0.2725,0.4658,1.1386,-0.2824,-1.7205,-0.9119,11.4797,1.8925,0.2024,-2.522,-0.2916,-11.3495,4.6593,1.0823,0.7332,-2.7642,-1.3459,-11.0993,1.9628,3.8373,-0.045103,0,1698375090.3793,71
0.1462,-0.14,-0.2687,0.4583,1.5877,-0.0811,-1.8514,-1.2474,11.3802,1.9625,0.2225,-2.2021,-0.29,-11.5463,4.5711,0.9502,0.4937,-1.9835,-1.4192,-11.2027,1.8417,3.8495,-0.024186,0,1698375090.3891,72
0.1382,-0.3189,-0.2655,0.4444,2.0251,-0.1428,-1.9351,-1.5713,11.5178,2.0687,0.3915,-1.75,-0.299,-11.566,4.4452,0.7563,0.2608,-1.2051,-1.4479,-11.2347,1.6627,3.8191,-0.016532,0,1698375090.3998,73
0.1254,-0.537,-0.2608,0.4998,2.1587,-0.2198,-1.9107,-1.7684,11.6041,1.9543,0.7188,-1.2957,-0.2992,-11.387,4.2623,0.516,0.166,-0.447,-1.4745,-11.1361,1.4584,3.7364,-0.023591,0,1698375090.4094,74
0.1082,-0.8075,-0.252,0.6808,2.052,-0.3767,-1.7461,-2.065,11.4312,1.8178,1.1357,-0.9138,-0.2619,-11.0111,4.0022,0.2872,0.3514,0.2142,-1.4883,-10.9085,1.2417,3.6321,-0.121469,0,1698375090.4194,75
0.0869,-1.1936,-0.2394,0.8974,1.9486,-0.6068,-1.4332,-2.5857,11.1359,1.6741,1.6539,-0.5039,-0.1477,-10.4896,3.659,0.0847,0.7979,0.8071,-1.4718,-10.5595,0.9924,3.5372,-0.298532,0,1698375090.4297,75
0.0612,-1.611,-0.2251,1.0642,2.0387,-0.9569,-1.1169,-2.9978,10.685,1.5991,2.2924,0.0864,0.0322,-9.9225,3.2516,-0.0842,1.3646,1.3962,-1.4317,-10.0985,0.7261,3.429,-0.427494,0,1698375090.4392,76
0.0338,-1.9775,-0.2108,1.1314,2.1633,-1.394,-0.9173,-3.121,10.392,1.6593,3.0125,0.8303,0.2461,-9.3947,2.8296,-0.2338,1.948,1.9382,-1.3468,-9.6017,0.4449,3.2747,-0.407599,0,1698375090.45,77
0.0046,-2.2063,-0.1977,1.1684,1.9422,-1.7336,-0.7997,-2.7713,10.3787,1.5986,3.9127,0.9778,0.2256,-9.093,2.71,-0.4863,2.4965,2.3302,-1.1846,-9.1463,0.1389,3.0337,-0.294822,0,1698375090.4593,78
-0.0253,-2.396,-0.186,1.1939,1.6051,-2.1031,-0.7416,-2.1924,10.6133,1.568,4.559,0.8733,0.1696,-8.9561,2.5591,-0.761,2.9771,2.4387,-0.9837,-8.8324,-0.19,2.7201,-0.204308,0,1698375090.4695,79
-0.0551,-2.555,-0.1756,1.173,1.3655,-2.5749,-0.7178,-1.8258,10.6126,1.712,4.9009,1.0257,0.2838,-8.798,2.1736,-0.8701,3.4212,2.1812,-0.7977,-8.673,-0.4946,2.4095,-0.11817,0,1698375090.4792,80
-0.0862,-2.5865,-0.166,1.1323,0.9492,-2.9065,-0.6848,-1.3543,10.8054,1.6278,5.1843,0.6916,0.2924,-8.7484,1.977,-0.8693,3.8479,1.5228,-0.6653,-8.5851,-0.6999,2.1714,-0.043594,0,1698375090.4901,81
-0.1189,-2.7031,-0.1565,1.0582,0.6592,-3.1555,-0.6388,-0.8397,10.9575,1.6799,5.0653,0.0076,0.2275,-8.8513,1.9195,-0.7961,4.1614,0.5733,-0.5777,-8.5972,-0.7271,2.0445,0.01511,0,1698375090.4998,81
-0.1515,-2.8911,-0.1477,0.9978,0.2685,-3.3157,-0.6294,-0.2513,10.8666,1.7899,4.6089,-0.6889,0.1864,-9.02,1.9708,-0.6702,4.2686,-0.4394,-0.5225,-8.7213,-0.5828,1.9902,0.104667,0,1698375090.5088,82
-0.1805,-2.9823,-0.1397,0.9605,-0.0553,-3.3566,-0.5369,0.245,10.7458,1.8353,4.0167,-1.4328,0.1341,-9.2592,2.1683,-0.5368,4.0996,-1.2729,-0.4889,-8.916,-0.3018,1.9901,0.234009,0,1698375090.5187,83
-0.2081,-2.9606,-0.1312,0.9224,-0.168,-3.3023,-0.3679,0.5663,10.3301,1.9804,3.3471,-1.979,0.0304,-9.5375,2.4679,-0.3996,3.6334,-1.7967,-0.4927,-9.1571,0.0472,2.0287,0.368613,0,1698375090.5284,84
-0.2344,-2.8422,-0.122,0.9139,-0.3526,-3.1034,-0.1753,0.9686,10.053,1.9706,2.752,-2.1408,-0.0664,-9.7523,2.7779,-0.2703,3.1035,-2.0127,-0.632,-9.3962,0.3765,2.0641,0.489068,0,1698375090.5384,85
-0.2582,-2.7021,-0.112,0.9558,-0.306,-2.9105,0.1175,1.1086,9.7239,1.9361,2.4977,-2.0611,-0.1202,-9.9088,3.0929,-0.1912,2.7387,-1.7825,-0.8493,-9.6086,0.6727,2.0841,0.593542,0,1698375090.5486,86
-0.2799,-2.5809,-0.1012,1.0324,-0.1173,-2.7291,0.4949,1.0818,9.2093,1.9822,2.5797,-1.7649,-0.1246,-9.9466,3.39,-0.1576,2.6241,-1.0515,-1.0231,-9.756,0.8963,2.0982,0.682166,0,1698375090.5586,86
-0.2987,-2.3814,-0.0895,1.0599,0.0916,-2.4954,0.9209,1.1311,8.9108,1.9346,2.8334,-1.2868,-0.1398,-9.7999,3.5831,-0.1069,2.7192,-0.0917,-1.1335,-9.7798,1.0326,2.1397,0.752975,0,1698375090.5682,87
-0.3145,-2.1345,-0.0773,1.0446,0.3253,-2.2533,1.3456,0.9983,8.876,1.8357,3.1506,-0.872,-0.1568,-9.5197,3.6104,-0.0652,2.8134,0.7834,-1.1655,-9.6556,1.0863,2.2297,0.808124,0,1698375090.5786,88
-0.3283,-1.9257,-0.0646,1.0744,0.4728,-1.9579,1.7258,0.7719,8.7709,1.8353,3.4073,-0.693,-0.107,-9.2031,3.5196,0.0023,2.8108,1.44,-1.1563,-9.4089,1.0765,2.2977,0.85092,0,1698375090.588,89
-0.3405,-1.7474,-0.052,1.1095,0.5363,-1.679,2.0747,0.6359,8.8515,1.7951,3.5631,-0.6434,-0.0154,-8.9033,3.39,0.1338,2.7185,1.9194,-1.1116,-9.0968,1.0271,2.3131,0.883777,0,1698375090.5988,90
-0.3522,-1.5765,-0.0397,1.1348,0.7312,-1.4948,2.3798,0.4595,9.0609,1.6637,3.6194,-0.6015,0.0949,-8.6107,3.2367,0.2584,2.5326,2.2662,-1.0335,-8.772,0.9353,2.3248,0.908261,0,1698375090.6081,91
-0.3639,-1.4585,-0.0276,1.1419,0.8094,-1.2801,2.6168,0.4582,9.1422,1.4481,3.5438,-0.5647,0.2386,-8.3389,3.0714,0.3721,2.2935,2.4742,-0.954,-8.4551,0.798,2.3208,0.926589,0,1698375090.6186,92
-0.3758,-1.4295,-0.0162,1.1265,0.7551,-1.0912,2.7796,0.5911,9.3497,1.2477,3.3769,-0.7167,0.3638,-8.1085,2.9181,0.4761,2.0661,2.5215,-0.8838,-8.167,0.6625,2.2837,0.941123,0,1698375090.6287,92
-0.3882,-1.4026,-0.0051,1.1154,0.7112,-0.9386,2.8694,0.6577,9.4791,1.1401,3.2012,-0.7709,0.4176,-7.8911,2.7903,0.5555,1.864,2.4118,-0.7841,-7.9303,0.5714,2.2258,0.953125,1,1698375090.6394,93
-0.3999,-1.3307,0.0049,1.0866,0.5458,-0.7407,2.8863,0.7415,9.4495,1.0539,3.0597,-0.4091,0.3724,-7.6816,2.6832,0.6205,1.6703,2.1518,-0.6444,-7.7369,0.51,2.142,0.963015,1,1698375090.6494,94
-0.4102,-1.2612,0.0134,1.0456,0.2683,-0.5146,2.8023,0.9582,9.4152,0.9814,2.8807,0.0245,0.2649,-7.5025,2.5885,0.6714,1.4789,1.7982,-0.5002,-7.5923,0.4719,2.0364,0.970786,1,1698375090.6596,95
-0.4193,-1.1753,0.0208,0.9841,0.1618,-0.2904,2.6246,1.251,9.4484,0.917,2.6275,0.1644,0.1942,-7.3651,2.5166,0.6819,1.3039,1.3803,-0.3284,-7.527,0.4512,1.9364,0.976779,1,1698375090.6699,96
