right_q,right_q_dot,left_q,left_q_dot,pelv_ang_1,pelv_ang_2,pelv_ang_3,pelv_acc_1,pelv_acc_1,pelv_acc_3,right_back_ang_x,right_back_ang_y,right_back_ang_z,right_back_acc_x,right_back_acc_y,right_back_acc_z,left_back_ang_x,left_back_ang_y,left_back_ang_z,left_back_acc_x,left_back_acc_y,left_back_acc_z,,,,Label
-0.4229,-0.23,0.0087,0.0242,-0.9602,-1.4416,0.7993,0.4434,9.603,1.2977,-1.3308,2.7526,1.3091,9.4667,-2.005,2.2539,-0.8944,0.2498,0.3301,9.7368,-2.2398,0.7753,-0.999017,0,1698375506.1216,0
-0.4229,-0.1788,0.009,0.0222,-0.9628,-1.4961,0.7143,0.4376,9.6205,1.3017,-1.1584,2.8408,1.2746,9.3213,-2.0279,2.3111,-0.946,0.0626,0.2278,9.6516,-2.2551,0.7494,-0.99847,0,1698375506.1313,1
-0.4228,-0.1462,0.0095,0.0387,-1.0774,-1.4678,0.6133,0.4925,9.6871,1.1599,-1.1975,2.6894,1.1216,9.2132,-2.034,2.3933,-1.0322,-0.0827,0.1526,9.5881,-2.2692,0.7395,-0.997831,0,1698375506.1403,1
-0.4226,-0.1039,0.0106,0.0675,-1.1953,-1.4219,0.4931,0.6426,9.7708,1.0861,-1.4111,2.3178,0.8247,9.1529,-2.0545,2.4758,-1.1229,-0.1692,0.1036,9.5538,-2.2852,0.723,-0.997474,0,1698375506.1505,2
-0.4225,-0.0677,0.0118,0.0752,-1.235,-1.4366,0.3631,0.7838,9.734,1.1822,-1.6213,1.8443,0.4602,9.112,-2.0701,2.5559,-1.2181,-0.21,0.0715,9.5265,-2.3059,0.7129,-0.997557,0,1698375506.1608,3
-0.4224,-0.0659,0.0131,0.0792,-1.3101,-1.4428,0.2212,0.8988,9.6782,1.2996,-1.7855,1.4978,0.1346,9.0819,-2.0919,2.6527,-1.2768,-0.1991,0.0363,9.4998,-2.307,0.7194,-0.997821,0,1698375506.171,3
-0.4223,-0.0536,0.0145,0.0952,-1.3207,-1.423,0.0931,0.9467,9.5618,1.4272,-1.8669,1.3224,-0.1201,9.0531,-2.1248,2.7326,-1.3172,-0.1241,-0.0021,9.4825,-2.3062,0.736,-0.998143,0,1698375506.1802,4
-0.422,-0.029,0.016,0.1159,-1.2948,-1.3786,-0.009,0.8887,9.5142,1.4546,-1.8927,1.2092,-0.3307,9.0254,-2.1515,2.7605,-1.3537,-0.0267,-0.0558,9.464,-2.3124,0.7451,-0.998472,0,1698375506.1904,5
-0.4211,0.0138,0.0171,0.122,-1.3463,-1.316,-0.1334,0.8616,9.6031,1.4356,-1.8557,1.2167,-0.5053,9.0232,-2.1909,2.7693,-1.3352,0.0822,-0.1333,9.4565,-2.3224,0.7549,-0.99876,0,1698375506.2003,5
-0.4192,0.0616,0.0179,0.1188,-1.3659,-1.2571,-0.2786,0.8577,9.5885,1.4318,-1.774,1.5268,-0.6725,9.0369,-2.2287,2.8192,-1.2714,0.1941,-0.2233,9.4708,-2.3388,0.7721,-0.998986,0,1698375506.2105,6
-0.4169,0.1042,0.0194,0.1357,-1.3359,-1.1935,-0.4076,0.8049,9.4353,1.4724,-1.5768,1.9329,-0.8092,9.0441,-2.2431,2.874,-1.2048,0.3159,-0.3179,9.4969,-2.3556,0.809,-0.999155,0,1698375506.2204,7
-0.4148,0.1404,0.022,0.192,-1.2223,-1.1288,-0.5052,0.7284,9.2965,1.5116,-1.2984,2.0652,-0.8932,9.028,-2.2359,2.8703,-1.159,0.4395,-0.4161,9.5125,-2.364,0.8558,-0.999292,0,1698375506.2303,7
-0.4131,0.1565,0.0254,0.2626,-0.9389,-1.0793,-0.541,0.5922,9.1085,1.5777,-1.0191,1.8466,-0.9508,8.9688,-2.2035,2.8367,-1.1362,0.5057,-0.5418,9.5007,-2.3685,0.8935,-0.999417,0,1698375506.2407,8
-0.4112,0.182,0.0297,0.307,-0.6702,-0.9506,-0.5876,0.5305,8.8015,1.6314,-0.7927,1.3462,-0.9691,8.9043,-2.1765,2.7897,-1.1271,0.5077,-0.7008,9.4629,-2.381,0.9402,-0.999533,0,1698375506.251,9
-0.4084,0.2077,0.0347,0.3633,-0.4998,-0.7424,-0.6902,0.7587,8.6615,1.5991,-0.6135,0.7036,-0.9909,8.8607,-2.1518,2.7487,-1.1148,0.4726,-0.884,9.4191,-2.406,0.9935,-0.999633,0,1698375506.2603,9
-0.4051,0.2301,0.0396,0.4109,-0.2107,-0.5773,-0.7767,0.9844,8.7168,1.6192,-0.4291,0.0383,-1.0011,8.8399,-2.147,2.7024,-1.0959,0.4266,-1.0859,9.381,-2.4304,1.0604,-0.999714,0,1698375506.2703,10
-0.4022,0.2298,0.0446,0.4462,0.1783,-0.4243,-0.8107,1.0591,8.736,1.6818,-0.3038,-0.6089,-0.9869,8.8579,-2.1749,2.6491,-1.0762,0.3388,-1.2862,9.3624,-2.4516,1.1131,-0.999754,0,1698375506.281,11
-0.4006,0.1913,0.0508,0.5088,0.472,-0.2467,-0.8183,1.1931,8.7637,1.7254,-0.1988,-1.195,-1.0184,8.9088,-2.2029,2.5911,-1.0574,0.1957,-1.4554,9.3715,-2.484,1.1463,-0.998637,0,1698375506.2909,11
-0.4,0.1491,0.0577,0.5666,0.6932,-0.0456,-0.82,1.3878,8.9692,1.6539,-0.0755,-1.6273,-1.1196,8.9751,-2.23,2.5766,-1.0181,0.0436,-1.5894,9.3965,-2.5106,1.1993,-0.993994,0,1698375506.3003,12
-0.3999,0.1132,0.0642,0.5869,0.9461,0.1787,-0.817,1.5374,9.0809,1.554,0.0484,-1.9128,-1.2766,9.0241,-2.2506,2.6117,-0.9348,-0.0685,-1.7096,9.4137,-2.5216,1.2528,-0.973718,0,1698375506.3102,13
-0.3999,0.0914,0.0705,0.6113,1.1825,0.4526,-0.8054,1.6306,9.007,1.478,0.1702,-2.1823,-1.4608,9.0462,-2.2604,2.6284,-0.8215,-0.1403,-1.8337,9.409,-2.5355,1.2984,-0.850736,0,1698375506.3201,13
-0.3997,0.0954,0.0769,0.6441,1.3849,0.789,-0.7937,1.7516,8.9411,1.3461,0.2665,-2.3183,-1.597,9.0511,-2.2757,2.6325,-0.6371,-0.2182,-1.9565,9.3879,-2.5596,1.3354,-0.576979,0,1698375506.3308,14
-0.3989,0.1264,0.0832,0.6605,1.5617,1.161,-0.7984,1.9579,8.9327,1.2003,0.3524,-2.1862,-1.6346,9.0369,-2.2901,2.625,-0.3704,-0.3052,-2.0707,9.3442,-2.588,1.3614,-0.257085,0,1698375506.3403,14
-0.3969,0.1823,0.0899,0.697,1.7519,1.5394,-0.8019,2.1494,8.9419,1.0841,0.466,-1.9021,-1.6093,9.0075,-2.2748,2.5839,-0.0729,-0.4144,-2.1627,9.2791,-2.5916,1.3806,-0.071191,0,1698375506.3503,15
-0.3932,0.2605,0.0968,0.7185,1.9575,1.9348,-0.8124,2.2612,8.9515,0.969,0.5832,-1.6218,-1.5564,8.9745,-2.2326,2.5209,0.24,-0.5607,-2.2274,9.2327,-2.5714,1.3957,0.04299,0,1698375506.3603,16
-0.3867,0.408,0.1036,0.713,2.1641,2.3407,-0.8461,2.3112,9.0024,0.8993,0.6921,-1.635,-1.5247,8.9483,-2.1927,2.4261,0.5401,-0.8004,-2.2725,9.2208,-2.5493,1.4233,0.216388,0,1698375506.3703,16
-0.377,0.5856,0.1105,0.7167,2.4371,2.7242,-0.8722,2.2349,9.057,0.8733,0.6693,-2.154,-1.5708,8.9558,-2.1342,2.2682,0.7553,-1.1135,-2.2803,9.2717,-2.5362,1.4583,0.385169,0,1698375506.3806,17
-0.3645,0.7372,0.1171,0.7071,2.6491,3.103,-0.8917,2.0515,9.371,0.8322,0.4744,-2.523,-1.6825,9.0762,-2.0551,2.2111,0.8492,-1.4599,-2.2378,9.4445,-2.5115,1.5122,0.521133,0,1698375506.3905,18
-0.3495,0.8739,0.1226,0.6626,2.7439,3.4416,-0.8659,1.6918,10.0812,0.8963,0.1662,-3.2357,-2.0658,9.3451,-1.9078,2.0689,0.9119,-1.8073,-2.1451,9.7338,-2.4499,1.5595,0.627665,0,1698375506.4005,18
-0.3334,1.0379,0.1271,0.6046,2.8295,3.6457,-0.7359,1.0658,10.8042,1.1265,-0.2837,-4.3015,-2.7359,9.7793,-1.7015,2.0087,1.0186,-2.0925,-1.9854,10.1232,-2.3451,1.5475,0.709516,0,1698375506.4107,19
-0.3181,1.1477,0.1303,0.531,2.8082,3.7276,-0.5327,0.4088,11.3941,1.4279,-0.7073,-4.5251,-3.3578,10.3881,-1.5663,2.277,1.1406,-2.3763,-1.7496,10.6039,-2.1838,1.5209,0.769129,0,1698375506.4204,20
-0.3051,1.1362,0.1315,0.4209,2.7166,3.6446,-0.2658,-0.2697,11.8975,1.7527,-1.0866,-4.2147,-4.0138,11.0684,-1.468,2.5929,1.3359,-2.7424,-1.4583,11.1732,-1.9938,1.4857,0.804437,0,1698375506.4302,20
-0.2962,1.0219,0.1312,0.33,2.752,3.3382,0.025,-0.7935,11.7154,2.1894,-1.2057,-4.1151,-4.7748,11.6967,-1.3428,2.7869,1.6555,-3.0693,-1.1681,11.7222,-1.7593,1.4392,0.789256,0,1698375506.4407,21
-0.2927,0.8212,0.131,0.2638,2.5955,3.1197,0.3489,-1.056,11.4598,2.3511,-0.7076,-4.1571,-5.3215,12.1663,-1.0956,2.9227,1.9634,-3.0932,-0.9819,12.1199,-1.434,1.4081,0.758845,0,1698375506.4502,22
-0.2923,0.6451,0.1298,0.1424,2.1236,2.962,0.6704,-1.5304,11.5508,2.7373,0.3065,-3.9042,-5.3414,12.386,-0.799,3.0803,2.027,-2.9379,-1.0017,12.3499,-1.0666,1.3562,0.76443,0,1698375506.4604,22
-0.2922,0.5202,0.1255,-0.0351,1.7085,2.7296,0.8024,-1.6682,11.4833,2.8779,1.5586,-3.5705,-4.8166,12.3951,-0.5973,3.0792,1.8617,-2.8965,-1.2541,12.3909,-0.73,1.2739,0.780203,0,1698375506.4705,23
-0.2896,0.4934,0.1175,-0.2674,1.8242,2.3385,0.8207,-1.4756,11.4333,2.6389,2.7885,-3.1981,-3.913,12.2956,-0.4997,2.9954,1.7444,-2.8567,-1.6699,12.2829,-0.5465,1.2009,0.788652,0,1698375506.4806,24
-0.2828,0.5743,0.1057,-0.5516,2.064,1.9462,0.7377,-1.2608,11.1087,3.0082,3.8725,-2.7255,-2.8123,12.1327,-0.5254,2.8911,1.7452,-2.5974,-2.1284,12.07,-0.5409,1.1255,0.793931,0,1698375506.4906,24
-0.2721,0.7409,0.0909,-0.8183,1.7406,2.0837,0.4525,-0.421,10.7443,3.1033,4.7733,-2.2341,-1.6966,11.8943,-0.6002,2.7508,1.8661,-2.1924,-2.5544,11.7288,-0.6038,1.0332,0.809273,0,1698375506.5004,25
-0.2589,0.9043,0.0736,-1.0969,1.3446,2.43,0.1475,0.52,10.4503,3.1326,5.4116,-1.82,-0.6663,11.6246,-0.7101,2.5942,2.1594,-1.8581,-2.9083,11.2731,-0.6995,0.9487,0.841267,0,1698375506.5105,26
-0.2456,0.9951,0.0546,-1.323,1.1316,2.693,-0.0621,1.1675,9.9574,3.4143,5.7233,-1.5392,0.1074,11.3205,-0.7648,2.4301,2.4835,-1.6786,-3.1269,10.7642,-0.8,0.8871,0.875202,0,1698375506.5205,26
-0.2337,1.0136,0.0343,-1.5218,0.9388,2.9066,-0.1653,1.4716,9.8717,3.5944,5.8512,-1.253,0.538,10.9638,-0.7091,2.3534,2.7855,-1.5204,-3.1783,10.2695,-0.8725,0.8844,0.901535,0,1698375506.5305,27
-0.2233,0.9986,0.0129,-1.7699,0.7627,3.0334,-0.1551,1.1826,10.054,3.6912,5.8278,-0.7989,0.725,10.6362,-0.6339,2.3814,3.1675,-1.2348,-3.0307,9.8515,-0.9162,0.935,0.921898,0,1698375506.5404,28
-0.2139,1.0051,-0.0104,-1.9492,0.5365,3.1744,-0.1012,0.6834,10.125,3.6542,5.7475,-0.3004,0.7348,10.3315,-0.5198,2.4206,3.5647,-0.9448,-2.669,9.574,-0.8769,1.0507,0.915511,0,1698375506.5505,28
-0.205,0.9883,-0.0354,-2.1123,0.267,3.2917,-0.0508,0.1563,10.0658,3.5495,5.7984,0.0586,0.6061,10.0411,-0.3098,2.4538,3.8307,-0.711,-2.163,9.4206,-0.7224,1.1943,0.843298,0,1698375506.5605,29
-0.1965,0.93,-0.0612,-2.2147,-0.0736,3.364,-0.0125,-0.4321,9.7798,3.3629,5.9513,0.2216,0.4319,9.7698,-0.0399,2.4835,3.9487,-0.4271,-1.6141,9.2964,-0.4816,1.2839,0.80151,0,1698375506.5711,30
-0.1887,0.8563,-0.0885,-2.2818,-0.4429,3.4295,0.0053,-0.9202,9.5181,3.0918,6.1621,0.1752,0.3341,9.5009,0.2409,2.5697,3.9593,-0.1053,-1.0991,9.1727,-0.2328,1.3886,0.837358,0,1698375506.5815,30
-0.1821,0.7993,-0.1167,-2.4413,-0.6727,3.3875,0.0021,-1.2931,9.2066,2.8874,6.3531,-0.1523,0.2837,9.2687,0.52,2.6652,3.8713,0.1814,-0.6513,9.0667,-0.0398,1.5243,0.87363,0,1698375506.5916,31
-0.1772,0.716,-0.1432,-2.4798,-0.8657,3.1427,-0.0498,-1.4919,9.056,2.7518,6.3907,-0.6998,0.1764,9.1001,0.7244,2.7121,3.7263,0.3674,-0.2729,9.0144,0.1125,1.6068,0.901845,0,1698375506.6016,32
-0.1733,0.6121,-0.1671,-2.4387,-0.8988,2.91,-0.068,-1.6017,8.5865,2.6468,6.2844,-1.1089,0.0931,9.0082,0.8225,2.863,3.5352,0.4625,0.0569,9.0421,0.2169,1.6696,0.92376,0,1698375506.6112,32
-0.17,0.5296,-0.1878,-2.388,-0.9015,2.6286,-0.1093,-1.7294,7.849,2.7729,6.2078,-1.3687,0.0684,8.9996,0.8825,3.0785,3.2803,0.4818,0.3437,9.1398,0.2764,1.7461,0.940781,0,1698375506.62,33
-0.1674,0.4676,-0.2064,-2.2462,-0.8696,2.1221,-0.2122,-2.0024,7.7877,2.9556,6.2122,-1.7213,0.0296,9.0606,0.9579,3.2133,2.9987,0.5053,0.5511,9.2713,0.318,1.7935,0.953968,0,1698375506.6305,34
-0.1653,0.4081,-0.224,-2.1264,-0.6828,1.594,-0.3143,-2.2414,8.1063,2.7105,6.3238,-2.1443,-0.0695,9.1796,1.018,3.3324,2.6957,0.5866,0.6901,9.4159,0.3399,1.8228,0.964152,0,1698375506.6404,34
-0.1631,0.3678,-0.2397,-2.0133,-0.5301,1.1054,-0.4549,-2.318,8.4933,2.3293,6.5281,-2.3851,-0.2079,9.3524,1.0407,3.5092,2.3649,0.6089,0.7733,9.5734,0.3345,1.8205,0.971996,0,1698375506.6505,35
-0.1601,0.3498,-0.2537,-1.8482,-0.5308,0.5997,-0.6264,-2.4149,8.653,2.27,6.8232,-2.36,-0.3469,9.4479,0.9613,3.7418,2.0764,0.5503,0.7834,9.7257,0.3278,1.7476,0.92436,0,1698375506.6602,36
-0.1561,0.3495,-0.2663,-1.6972,-0.5015,0.0996,-0.8285,-2.3734,8.5287,2.4452,6.9927,-2.026,-0.4659,9.5702,0.9157,3.8731,1.8941,0.5142,0.718,9.8579,0.309,1.6546,0.664493,0,1698375506.6706,36
-0.152,0.3518,-0.2775,-1.5591,-0.195,-0.3527,-1.0256,-2.1576,8.6599,2.4913,6.7929,-1.2305,-0.5584,9.7454,0.9142,3.915,1.8334,0.5271,0.5759,9.913,0.2814,1.5474,0.29333,0,1698375506.6807,37
-0.148,0.3461,-0.2876,-1.4227,0.2332,-0.7535,-1.1992,-1.9519,8.9121,2.3731,6.3888,-0.1977,-0.5603,9.7903,0.8291,3.9076,1.8928,0.5925,0.3958,9.9122,0.2689,1.4283,0.011754,0,1698375506.6906,38
-0.1441,0.3572,-0.297,-1.334,0.4456,-1.006,-1.3382,-1.7658,9.1405,2.2377,5.862,0.8125,-0.4195,9.7891,0.7796,3.7905,1.9995,0.6347,0.2106,9.8988,0.2556,1.3467,-0.102504,0,1698375506.7009,38
-0.1397,0.3699,-0.3063,-1.267,0.4946,-1.157,-1.4539,-1.48,9.3652,2.1133,5.2269,1.6909,-0.1585,9.8174,0.7496,3.6372,2.0746,0.5559,0.0558,9.8426,0.2529,1.2786,-0.025528,0,1698375506.7113,39
-0.1349,0.3769,-0.3153,-1.2144,0.583,-1.339,-1.5404,-1.2482,9.5008,2.0742,4.5709,2.3612,0.1304,9.847,0.739,3.5131,2.018,0.4146,0.0113,9.806,0.234,1.309,0.082094,0,1698375506.7201,39
-0.1305,0.3792,-0.3244,-1.2027,0.6056,-1.4523,-1.576,-1.1414,9.6614,2.0189,4.0425,2.7856,0.3522,9.8227,0.7745,3.4036,1.9458,0.4292,0.0424,9.8449,0.1544,1.376,0.145956,0,1698375506.7307,40
-0.1266,0.3605,-0.3337,-1.1736,0.5363,-1.4797,-1.5696,-1.0084,9.9337,1.9396,3.6773,2.9226,0.5185,9.786,0.8232,3.2924,1.8966,0.5267,0.0623,9.8879,0.1538,1.3596,0.223721,0,1698375506.7411,41
-0.1232,0.3412,-0.3428,-1.1337,0.3401,-1.484,-1.5279,-0.938,10.1989,1.8545,3.4406,2.8484,0.6119,9.7815,0.8691,3.2035,1.7664,0.5512,0.0888,9.8729,0.2487,1.3147,0.3177,0,1698375506.7502,41
-0.12,0.3559,-0.3518,-1.0974,0.0438,-1.4183,-1.4845,-0.9432,10.3177,1.755,3.3487,2.7669,0.6145,9.7815,0.901,3.1428,1.5996,0.624,0.1529,9.8472,0.2791,1.274,0.376499,0,1698375506.7606,42
-0.1168,0.3583,-0.3606,-1.0277,-0.2862,-1.3247,-1.4499,-0.9374,10.3419,1.7542,3.4443,2.9498,0.6157,9.7587,0.8931,3.1294,1.4087,0.6635,0.2299,9.8124,0.2728,1.2593,0.291833,0,1698375506.7704,43
-0.1138,0.3443,-0.3691,-0.971,-0.4683,-1.3295,-1.4188,-0.952,10.2113,1.8805,3.7717,3.5589,0.7198,9.7138,0.8475,3.1443,1.2306,0.6098,0.2906,9.7438,0.292,1.2368,0.064429,0,1698375506.7803,43
-0.1109,0.3329,-0.3767,-0.9171,-0.5203,-1.3844,-1.3878,-0.9383,9.9043,2.0299,4.2348,4.3047,0.8824,9.641,0.8176,3.162,1.0522,0.5996,0.3514,9.6707,0.3085,1.1937,-0.167921,0,1698375506.7911,44
-0.1084,0.3006,-0.3836,-0.8676,-0.5368,-1.3597,-1.3484,-0.8483,9.5747,2.0634,4.5528,4.6693,0.9755,9.5558,0.8311,3.1012,0.8701,0.6641,0.4105,9.6058,0.3186,1.1672,-0.35305,0,1698375506.8001,45
-0.1066,0.2591,-0.3893,-0.7905,-0.6169,-1.2161,-1.3093,-0.6602,9.2978,1.995,4.5781,4.4718,0.9404,9.4768,0.8605,3.0091,0.7339,0.7816,0.4454,9.5683,0.3356,1.1685,-0.497306,0,1698375506.8105,45
-0.1052,0.2283,-0.3936,-0.682,-0.7823,-1.0432,-1.2874,-0.45,9.1611,1.9946,4.3695,3.8037,0.7964,9.4312,0.8713,2.9667,0.6604,0.8626,0.4537,9.5563,0.3493,1.157,-0.609398,0,1698375506.8202,46
-0.1036,0.2002,-0.3971,-0.615,-0.8724,-0.9225,-1.261,-0.2988,9.1295,1.9929,3.9892,2.8962,0.5798,9.4282,0.8532,2.9781,0.6008,0.8394,0.438,9.5697,0.3353,1.1507,-0.696464,0,1698375506.8317,47
-0.1013,0.197,-0.4005,-0.5634,-0.8964,-1.0393,-1.1988,-0.301,9.1095,1.9804,3.5311,1.9637,0.3493,9.4381,0.8448,3.0033,0.534,0.8819,0.4216,9.6084,0.3109,1.1811,-0.764162,0,1698375506.8414,47
-0.0987,0.2206,-0.4033,-0.504,-0.9422,-1.101,-1.0755,-0.4663,9.1909,1.9605,3.0713,1.1884,0.1489,9.4557,0.8562,3.0237,0.4745,0.9823,0.4113,9.6363,0.2932,1.1972,-0.816818,0,1698375506.8507,48
-0.0962,0.2428,-0.4047,-0.4225,-0.9549,-0.9146,-0.897,-0.6632,9.329,1.8646,2.6375,0.6866,0.0078,9.48,0.8621,3.0542,0.4121,1.0031,0.4051,9.6286,0.2776,1.2012,-0.857717,0,1698375506.8606,49
-0.0934,0.2537,-0.4052,-0.3235,-0.9919,-0.7409,-0.7022,-0.8235,9.4189,1.7495,2.2434,0.5313,-0.0421,9.4837,0.8464,3.0867,0.3457,0.9111,0.4011,9.5892,0.2781,1.1995,-0.889484,0,1698375506.871,49
-0.0904,0.2528,-0.4052,-0.2285,-1.0259,-0.5803,-0.5099,-0.915,9.5425,1.6274,1.9169,0.5777,0.0009,9.4478,0.8309,3.0882,0.3095,0.7603,0.3878,9.5399,0.2779,1.2032,-0.914117,0,1698375506.8813,50
-0.0875,0.2639,-0.4051,-0.1579,-1.2746,-0.4335,-0.341,-0.991,9.6433,1.5364,1.6411,0.6086,0.0607,9.421,0.8403,3.0527,0.3009,0.7072,0.3723,9.5145,0.2596,1.2232,-0.93267,0,1698375506.8911,51
-0.0846,0.2926,-0.405,-0.1241,-1.536,-0.2939,-0.2021,-0.9994,9.7122,1.482,1.3656,0.5508,0.0662,9.4472,0.8418,3.0163,0.2969,0.7085,0.3637,9.503,0.2419,1.2147,-0.946715,0,1698375506.9011,51
-0.0812,0.3322,-0.4049,-0.1111,-1.5013,-0.188,-0.0908,-0.939,9.7572,1.49,1.1413,0.4224,0.0271,9.4978,0.8241,3.0001,0.2869,0.6371,0.3664,9.4874,0.199,1.2151,-0.957709,0,1698375506.9102,52
-0.0772,0.366,-0.4048,-0.0864,-1.3729,-0.1176,0.0007,-0.887,9.5687,1.555,1.0796,0.3448,-0.0059,9.5125,0.788,3.0182,0.257,0.5833,0.3591,9.445,0.1534,1.2747,-0.966117,0,1698375506.9202,53
-0.0734,0.3554,-0.4044,-0.0429,-1.1053,-0.1244,0.0821,-0.8964,9.3699,1.6937,1.1083,0.2828,0.0273,9.4851,0.7495,3.0302,0.2576,0.5892,0.3543,9.391,0.1262,1.329,-0.972545,0,1698375506.9304,53
-0.0702,0.3123,-0.4034,0.013,-0.9026,-0.1109,0.1486,-0.9526,9.3133,1.7132,1.1128,0.2279,0.0915,9.4478,0.7311,3.0076,0.2794,0.5308,0.3804,9.3534,0.0969,1.3129,-0.976882,0,1698375506.9411,54
-0.0679,0.2936,-0.4012,0.069,-0.9351,0.0147,0.2123,-0.8607,9.2375,1.6514,0.985,0.0531,0.0782,9.44,0.7369,2.9233,0.2963,0.3423,0.4109,9.3471,0.1035,1.2788,-0.977925,0,1698375506.9511,55
-0.0658,0.2928,-0.3978,0.1474,-1.0252,0.1079,0.2703,-0.726,9.249,1.6366,0.8065,-0.0835,0.0194,9.4523,0.7382,2.8592,0.3018,-0.2618,0.4517,9.3642,0.1348,1.245,-0.972588,0,1698375506.9605,55
-0.0629,0.2932,-0.3936,0.246,-1.0167,0.1497,0.3204,-0.7673,9.2726,1.5475,0.7088,-0.0081,0.006,9.4347,0.714,2.8465,0.295,-0.6347,0.5233,9.3828,0.1447,1.2188,-0.953858,0,1698375506.9704,56
-0.0587,0.3395,-0.388,0.3304,-0.9037,0.1889,0.3823,-0.9052,9.2211,1.4858,0.6005,0.1306,0.0579,9.4062,0.6987,2.8094,0.2351,-0.5034,0.5884,9.3935,0.1224,1.2092,-0.931637,0,1698375506.9804,57
-0.0537,0.419,-0.3819,0.4046,-0.694,0.2288,0.4688,-0.988,9.2477,1.4333,0.4925,0.3295,0.1689,9.3957,0.7139,2.772,0.0872,-0.225,0.6227,9.3857,0.0968,1.2495,-0.924344,0,1698375506.9904,57
-0.0486,0.469,-0.3758,0.4528,-0.4902,0.27,0.5649,-1.0104,9.3194,1.3477,0.3634,0.4934,0.2986,9.3979,0.728,2.7574,-0.0089,-0.0207,0.6605,9.3912,0.0748,1.3046,-0.926886,0,1698375507.0001,58
-0.043,0.4959,-0.3693,0.4907,-0.3481,0.3267,0.6336,-0.9676,9.2957,1.2683,0.1627,0.5295,0.4095,9.4308,0.7302,2.7413,0.0204,-0.1185,0.7205,9.4161,0.0505,1.3164,-0.923063,0,1698375507.0109,59
-0.0369,0.5464,-0.3625,0.5195,-0.1849,0.3417,0.6836,-0.9555,9.1924,1.2345,-0.0896,0.4058,0.5042,9.4736,0.7204,2.7137,0.0969,-0.203,0.791,9.4346,0.0279,1.2967,-0.911608,0,1698375507.0202,59
-0.031,0.5562,-0.3559,0.5542,-0.0283,0.3091,0.742,-1.0503,9.1786,1.2379,-0.3469,0.1461,0.588,9.5062,0.6935,2.6983,0.1324,-0.2379,0.8866,9.4487,-0.0164,1.2571,-0.910963,0,1698375507.0303,60
-0.0257,0.5291,-0.3492,0.608,0.0516,0.3179,0.7942,-1.1673,9.2147,1.2234,-0.5706,-0.0487,0.6718,9.5452,0.6716,2.6777,0.1054,-0.323,1.0009,9.4842,-0.074,1.2154,-0.922946,0,1698375507.0405,61
-0.0203,0.5277,-0.3427,0.6182,0.0872,0.3341,0.8134,-1.2536,9.3919,1.1707,-0.7708,-0.0961,0.7651,9.5811,0.6452,2.6395,0.0291,-0.4598,1.1187,9.53,-0.1084,1.1704,-0.936106,0,1698375507.0515,61
-0.0142,0.5321,-0.3366,0.584,0.1225,0.3211,0.7874,-1.3321,9.5351,1.1499,-0.9552,-0.2037,0.8596,9.6063,0.5991,2.5837,0.0184,-0.3761,1.2281,9.5869,-0.1049,1.1349,-0.948819,0,1698375507.0613,62
-0.0082,0.5407,-0.3308,0.5783,0.1969,0.2777,0.7298,-1.4327,9.4769,1.1716,-1.1454,-0.4653,0.9365,9.6219,0.5482,2.5098,0.0996,-0.1423,1.3071,9.6349,-0.1179,1.0734,-0.959811,0,1698375507.0712,63
-0.0028,0.5582,-0.3263,0.5654,0.2622,0.2654,0.6466,-1.4541,9.4384,1.1783,-1.2854,-0.7069,0.9962,9.6436,0.4989,2.4621,0.1251,-0.0919,1.3701,9.654,-0.1585,0.981,-0.968574,0,1698375507.0801,63
0.0029,0.56,-0.323,0.4955,0.2551,0.2924,0.5369,-1.3668,9.5413,1.1403,-1.3456,-0.7854,1.0468,9.6607,0.4517,2.441,0.1552,-0.3042,1.3893,9.6739,-0.1596,0.9151,-0.975316,0,1698375507.0905,64
0.0086,0.5336,-0.3205,0.4366,0.2521,0.2734,0.4414,-1.3126,9.7471,1.0703,-1.4051,-0.751,1.0725,9.6708,0.4207,2.4226,0.2399,-0.5202,1.3803,9.7086,-0.1748,0.8923,-0.979889,0,1698375507.1002,64
0.0138,0.5373,-0.318,0.4045,0.1884,0.256,0.3579,-1.3389,9.9043,0.9706,-1.4837,-0.6646,1.0516,9.6792,0.4052,2.4154,0.3355,-0.6957,1.3844,9.7526,-0.188,0.8462,-0.980074,0,1698375507.1105,65
0.0193,0.5541,-0.3152,0.3907,0.1449,0.2289,0.2726,-1.385,9.8732,0.9006,-1.5533,-0.5319,0.9978,9.6972,0.3851,2.4152,0.38,-0.7322,1.2325,9.8269,-0.2453,0.8791,-0.970509,0,1698375507.1205,66
0.0252,0.5331,-0.312,0.396,0.1767,0.1533,0.1909,-1.4422,9.7264,0.9149,-1.5613,-0.3632,0.9416,9.742,0.3671,2.4119,0.458,-0.7768,1.1401,9.9114,-0.3366,0.8846,-0.952312,0,1698375507.131,66
0.0312,0.5195,-0.3084,0.4102,0.1963,0.0665,0.1045,-1.5364,9.7888,0.945,-1.4926,-0.2944,0.8638,9.8237,0.3948,2.4277,0.5117,-0.9206,1.2916,10.0214,-0.3326,0.736,-0.945275,0,1698375507.1411,67
0.0374,0.5402,-0.3044,0.4311,0.2286,-0.0444,-0.0205,-1.6287,10.0482,0.9876,-1.4213,-0.4301,0.7335,9.9463,0.4152,2.4961,0.2595,-0.7817,1.5532,10.2057,-0.3322,0.6968,-0.954124,0,1698375507.1503,68
0.0436,0.5662,-0.2996,0.4652,0.217,-0.1289,-0.1722,-1.6935,10.2966,1.1255,-1.4188,-0.7826,0.5514,10.1001,0.3894,2.5696,-0.2194,-0.5979,1.8213,10.4057,-0.3103,0.785,-0.964366,0,1698375507.1607,68
0.0487,0.5476,-0.2926,0.566,0.2021,-0.2115,-0.3122,-1.6987,10.5123,1.3318,-1.5634,-1.3087,0.3085,10.309,0.3934,2.6355,-0.4891,-0.8464,1.9144,10.6063,-0.2882,0.8225,-0.972322,0,1698375507.1704,69
0.0529,0.4911,-0.284,0.6934,0.2015,-0.2987,-0.4541,-1.5747,10.8106,1.5342,-1.8862,-1.8946,-0.0183,10.5726,0.4027,2.743,-0.4915,-1.3521,1.9015,10.88,-0.3359,0.8232,-0.978502,0,1698375507.1802,70
0.0568,0.4561,-0.275,0.7491,0.156,-0.282,-0.6053,-1.3869,11.0302,1.7481,-2.3516,-2.4434,-0.3572,10.8915,0.3869,2.8667,-0.5513,-1.531,1.9418,11.2195,-0.4698,0.8736,-0.983302,0,1698375507.1902,70
0.0601,0.4258,-0.267,0.729,0.245,-0.247,-0.7994,-1.193,11.1666,2.0078,-2.8598,-2.9302,-0.6146,11.2506,0.3514,2.9785,-0.5824,-1.3632,1.9833,11.5327,-0.6251,0.9453,-0.98703,0,1698375507.201,71
0.0626,0.3792,-0.2614,0.6537,0.3678,-0.2112,-1.0277,-0.9833,11.5665,2.2726,-3.3746,-3.3193,-0.7446,11.5868,0.2431,3.0896,-0.5392,-1.1646,1.9533,11.7738,-0.747,0.974,-0.989926,0,1698375507.2101,72
0.0641,0.3224,-0.258,0.5536,0.3746,-0.0726,-1.2212,-0.8295,11.9654,2.4168,-3.91,-3.4938,-0.7084,11.866,0.0665,3.2019,-0.446,-1.0709,1.8431,11.9474,-0.8848,0.9693,-0.992175,0,1698375507.2204,72
0.0647,0.2572,-0.2558,0.4708,0.2742,0.0912,-1.3665,-0.7731,12.0707,2.4571,-4.2628,-3.3259,-0.5158,12.0787,-0.1242,3.2797,-0.2723,-1.0612,1.657,12.0515,-0.9966,1.0148,-0.993921,0,1698375507.2305,73
0.0648,0.2096,-0.2547,0.3851,0.105,0.1819,-1.4222,-0.806,11.8684,2.5075,-4.2453,-2.7669,-0.1497,12.1741,-0.2845,3.3405,-0.0231,-0.9957,1.4382,12.1036,-1.0794,1.0777,-0.995247,0,1698375507.2406,74
0.0646,0.1779,-0.2545,0.3016,0.0426,0.1858,-1.3239,-0.9933,11.4336,2.5033,-3.9114,-1.9049,0.4235,12.1113,-0.3679,3.3842,0.2915,-0.7829,1.1823,12.1055,-1.1181,1.1003,-0.9938,0,1698375507.2507,74
0.0642,0.141,-0.2535,0.2745,0.22,0.0602,-1.1607,-1.2529,11.0672,2.3073,-3.3904,-0.851,1.1448,11.8956,-0.3458,3.3876,0.5383,-0.5503,0.8812,11.9618,-1.0963,1.0952,-0.941691,0,1698375507.2602,75
0.0637,0.1007,-0.25,0.3387,0.4575,-0.1516,-0.9019,-1.5229,10.4579,2.3777,-2.8067,0.138,1.879,11.5358,-0.244,3.3473,0.7199,-0.4779,0.5127,11.6883,-0.9778,1.0648,-0.809931,0,1698375507.271,76
0.0628,0.0516,-0.2435,0.4525,0.4766,-0.691,-0.5594,-1.7771,9.8553,2.5206,-2.2818,0.9548,2.4918,11.1032,-0.1012,3.328,0.7416,-0.5333,0.1626,11.3529,-0.8221,1.0358,-0.729926,0,1698375507.2805,76
0.0602,-0.0264,-0.2338,0.5635,0.4088,-1.0418,-0.157,-2.0327,9.4014,2.2026,-1.7778,1.6412,2.9371,10.6357,0.0417,3.3577,0.4158,-0.6692,-0.1068,10.9355,-0.6758,1.0173,-0.761542,0,1698375507.291,77
0.0551,-0.1709,-0.2217,0.7023,0.4601,-1.0723,0.2859,-2.2628,9.0358,1.988,-1.3437,2.165,3.2345,10.1186,0.1701,3.3668,-0.0153,-0.8403,-0.3595,10.4792,-0.5478,0.9748,-0.814777,0,1698375507.3014,78
0.0467,-0.35,-0.2086,0.8219,0.6406,-1.321,0.6768,-2.4381,8.841,2.1019,-1.1054,2.6817,3.3768,9.5737,0.279,3.4313,-0.2266,-0.8139,-0.6308,10.0473,-0.4376,0.932,-0.856132,0,1698375507.3112,78
0.0357,-0.5226,-0.1966,0.8872,0.618,-1.503,1.0035,-2.3358,8.7798,2.1527,-0.9842,3.1189,3.3578,9.0773,0.3459,3.525,-0.3762,-0.6537,-0.8458,9.66,-0.3526,0.8864,-0.888253,0,1698375507.3203,79
0.0226,-0.6786,-0.1868,0.926,0.5484,-1.7152,1.2393,-2.1217,8.8587,2.2959,-1.2301,3.075,3.1291,8.7037,0.3649,3.5604,-0.679,-0.6229,-0.902,9.345,-0.3242,0.8414,-0.913203,0,1698375507.3306,80
0.007,-0.8698,-0.1785,0.8912,0.468,-1.9456,1.3833,-1.8938,8.7214,2.6129,-1.9043,2.3148,2.6499,8.4063,0.3672,3.5807,-1.0855,-0.7141,-0.8178,9.1065,-0.3046,0.8414,-0.932582,0,1698375507.3409,80
-0.0113,-1.0763,-0.1719,0.8127,0.2948,-2.1228,1.4031,-1.4873,8.7965,2.8227,-2.6384,1.0776,1.9844,8.2138,0.3577,3.606,-1.5479,-0.7363,-0.657,8.9097,-0.3006,0.8465,-0.947635,0,1698375507.3503,81
-0.0318,-1.2443,-0.1667,0.7314,0.1645,-2.3551,1.3324,-1.2215,9.0157,2.9646,-3.2061,-0.0709,1.1898,8.1869,0.2664,3.6717,-2.0348,-0.5158,-0.4273,8.7676,-0.3669,0.8093,-0.959326,0,1698375507.3615,82
-0.0555,-1.4268,-0.1617,0.6449,-0.0859,-2.5108,1.211,-1.0677,9.0879,3.0593,-3.5541,-0.7977,0.3629,8.2361,0.0745,3.7582,-2.4445,-0.1546,-0.1355,8.6887,-0.5182,0.7689,-0.968407,0,1698375507.3711,82
-0.0806,-1.6828,-0.157,0.5848,-0.3102,-2.5644,0.9837,-0.4958,8.9104,3.1746,-3.7597,-1.1031,-0.3952,8.2826,-0.1768,3.8006,-2.6767,0.0187,0.1312,8.6226,-0.7207,0.7739,-0.975461,0,1698375507.3802,83
-0.1053,-1.8917,-0.1531,0.5257,-0.4409,-2.7049,0.711,-0.0066,8.9,3.2828,-3.8119,-1.0787,-0.9952,8.3034,-0.4986,3.7846,-2.731,-0.0709,0.2898,8.6018,-1.0017,0.8374,-0.98094,0,1698375507.3907,84
-0.1316,-2.061,-0.1501,0.452,-0.5271,-2.8293,0.4352,0.1507,8.9331,3.3421,-3.7426,-1.0026,-1.3905,8.3167,-0.8496,3.7452,-2.7271,0.0096,0.3874,8.6719,-1.3437,0.9591,-0.985196,0,1698375507.4004,84
-0.1586,-2.2593,-0.1472,0.4283,-0.7023,-2.7854,0.1076,0.469,8.9788,3.3001,-3.7459,-1.1703,-1.6515,8.3765,-1.1444,3.7346,-2.7615,0.5689,0.4632,8.8012,-1.6863,1.1451,-0.988501,0,1698375507.4116,85
-0.1864,-2.4388,-0.1434,0.4403,-0.8946,-2.6643,-0.2022,0.773,9.094,3.2603,-3.8515,-1.5101,-1.8303,8.5175,-1.3619,3.7499,-2.8224,1.3816,0.4871,8.9722,-1.9955,1.3775,-0.991068,0,1698375507.4216,86
-0.2136,-2.5459,-0.1386,0.4544,-0.8727,-2.5652,-0.4429,1.0021,9.0509,3.3027,-4.0222,-1.9095,-1.9582,8.7222,-1.5003,3.8008,-3.052,1.9985,0.4819,9.1764,-2.2297,1.621,-0.993062,0,1698375507.4314,86
-0.2384,-2.5757,-0.1338,0.4741,-0.6495,-2.5112,-0.6025,1.1047,9.2275,3.3991,-4.2894,-2.4107,-2.0302,8.9891,-1.5515,3.8243,-3.567,2.1435,0.4718,9.4008,-2.3524,1.8749,-0.994611,0,1698375507.4417,87
-0.2614,-2.535,-0.1292,0.5005,-0.4446,-2.3849,-0.672,1.0387,9.5509,3.4292,-4.6589,-2.7343,-1.9294,9.3141,-1.5626,3.8471,-4.1502,1.9673,0.4777,9.6448,-2.446,2.1082,-0.995815,0,1698375507.4513,88
-0.2817,-2.4558,-0.1245,0.5156,-0.3604,-2.1394,-0.6484,0.9797,9.7634,3.2553,-5.1444,-2.6065,-1.6388,9.6667,-1.5705,3.8878,-4.6867,1.7375,0.5103,9.8883,-2.5698,2.2816,-0.996749,0,1698375507.4604,88
-0.2993,-2.3349,-0.1188,0.5102,-0.237,-1.8814,-0.5124,0.9374,9.7483,3.1255,-5.6682,-1.9397,-1.3075,9.9724,-1.5696,3.8975,-5.1512,1.542,0.5314,10.1026,-2.6699,2.3506,-0.997475,0,1698375507.4706,89
-0.3155,-2.1101,-0.1127,0.5047,-0.0952,-1.6426,-0.2816,0.7516,9.7981,3.0483,-6.1533,-0.6846,-0.9811,10.1618,-1.6149,3.8903,-5.3253,1.4132,0.4549,10.2447,-2.7001,2.348,-0.998039,0,1698375507.4808,89
-0.3305,-1.8977,-0.1069,0.5222,0.026,-1.3753,0.0153,0.5258,9.9543,2.937,-6.485,0.8084,-0.6143,10.2704,-1.7004,3.8131,-5.0208,1.4154,0.2378,10.3227,-2.6416,2.2707,-0.998477,0,1698375507.4917,90
-0.3452,-1.7616,-0.101,0.5357,0.1773,-1.149,0.349,0.3063,10.0398,2.8406,-6.6327,2.1121,-0.2416,10.3012,-1.7828,3.6596,-4.746,1.2091,0.0385,10.3441,-2.6372,2.1357,-0.998817,0,1698375507.5028,91
-0.3601,-1.6768,-0.0951,0.5227,0.3092,-0.9544,0.6773,0.1372,10.0472,2.7163,-6.6903,2.8938,0.0948,10.2555,-1.8794,3.4113,-4.6552,0.858,-0.1035,10.3155,-2.6892,2.0031,-0.999081,0,1698375507.5127,91
-0.3738,-1.5662,-0.0905,0.489,0.3504,-0.7224,0.9834,0.0873,10.2398,2.5383,-6.6576,3.2853,0.3535,10.1715,-1.933,3.1839,-4.4015,0.945,-0.241,10.2855,-2.6958,1.8854,-0.999286,0,1698375507.5223,92
-0.3859,-1.4407,-0.0862,0.4622,0.4028,-0.4807,1.268,0.1819,10.2447,2.3361,-6.3994,3.5374,0.4991,10.0545,-1.918,3.0215,-4.0596,1.3508,-0.3368,10.2288,-2.673,1.8264,-0.999445,0,1698375507.5329,93
-0.3989,-1.3497,-0.0813,0.46,0.3992,-0.288,1.5104,0.268,10.0749,2.4335,-6.1061,3.6711,0.5831,9.9037,-1.8858,2.8569,-3.4335,1.6302,-0.5978,10.0918,-2.223,1.5942,-0.999569,0,1698375507.5427,93
-0.4118,-1.3405,-0.0766,0.4572,0.2925,-0.0965,1.6884,0.3955,10.1001,2.53,-5.349,3.7433,0.686,9.7225,-1.8087,2.741,-2.8876,1.2951,-0.8577,9.9605,-1.7995,1.1597,-0.99966,0,1698375507.5525,94
-0.4236,-1.3545,-0.0727,0.4373,0.27,0.0463,1.8284,0.4649,9.9951,2.3828,-3.9582,3.7296,0.7965,9.5189,-1.7354,2.5863,-2.7081,0.7961,-0.9018,9.8435,-1.841,0.9711,-0.999722,0,1698375507.5623,95
-0.4348,-1.2851,-0.0692,0.4232,0.141,0.1734,1.9064,0.4188,9.8088,2.2814,-3.1302,3.5169,0.8073,9.3254,-1.7111,2.4178,-2.5048,0.5901,-0.9464,9.6842,-1.8764,1.0552,-0.999765,0,1698375507.5715,95
-0.4448,-1.173,-0.0652,0.4385,-0.1135,0.3769,1.8955,0.5677,9.756,2.1341,-2.9302,3.2265,0.6897,9.1501,-1.6836,2.3647,-2.2523,0.6005,-0.9571,9.5458,-1.925,1.1422,-0.999721,0,1698375507.5815,96
-0.4539,-1.0885,-0.0608,0.4494,-0.1714,0.5248,1.8768,0.7176,9.5461,2.128,-2.6282,2.885,0.473,8.9805,-1.6573,2.3534,-2.0365,0.8412,-0.9015,9.4087,-1.9826,1.1804,-0.999419,0,1698375507.5911,97
-0.4616,-0.9857,-0.0569,0.4351,-0.1755,0.4667,1.8315,0.8161,9.2992,2.1556,-2.3579,2.2491,0.1496,8.818,-1.6565,2.2924,-1.8093,1.0282,-0.8677,9.277,-2.0238,1.2084,-0.999099,0,1698375507.6005,97
-0.467,-0.8649,-0.0534,0.4018,-0.2204,0.4897,1.7265,0.8921,9.2629,2.134,-2.3312,1.3563,-0.2507,8.7011,-1.6581,2.2128,-1.5493,1.095,-0.8509,9.1707,-2.0593,1.192,-0.998974,0,1698375507.6111,98
-0.4708,-0.7653,-0.0494,0.398,-0.3107,0.7871,1.6032,0.9637,9.2454,2.0691,-2.4024,0.4132,-0.6563,8.6678,-1.6607,2.2065,-1.2485,1.0992,-0.8377,9.0628,-2.0577,1.1635,-0.998759,0,1698375507.6208,99
-0.4733,-0.6485,-0.0445,0.4363,-0.3774,1.0129,1.4605,0.9858,9.1311,1.9877,-2.3956,-0.2887,-0.9917,8.6602,-1.676,2.2698,-0.9339,1.1621,-0.8046,8.9856,-2.0715,1.1672,-0.99821,0,1698375507.6302,99
-0.4743,-0.5156,-0.0392,0.4559,-0.3167,1.1628,1.2995,0.8988,8.9025,1.9526,-2.2147,-0.6089,-1.202,8.64,-1.6954,2.3318,-0.6734,1.3201,-0.737,8.9238,-2.1044,1.1782,-0.996725,0,1698375507.6404,0
-0.4742,-0.3967,-0.0343,0.4552,-0.3011,1.3406,1.0942,0.8922,8.8869,1.8117,-1.9524,-0.7272,-1.2639,8.6345,-1.7295,2.3706,-0.4463,1.3686,-0.6837,8.8419,-2.1334,1.1795,-0.990473,0,1698375507.6502,1
-0.474,-0.3015,-0.0292,0.4784,-0.3581,1.4667,0.8547,0.8304,9.0432,1.657,-1.6906,-0.7535,-1.2208,8.6543,-1.761,2.3807,-0.2307,1.1208,-0.6815,8.7908,-2.1749,1.1909,-0.951754,0,1698375507.6604,1
-0.4739,-0.2247,-0.0236,0.5055,-0.4295,1.4991,0.586,0.6439,9.1993,1.4872,-1.3902,-0.6802,-1.1422,8.6844,-1.7828,2.3877,-0.053,0.5841,-0.69,8.7947,-2.2156,1.2364,-0.709054,0,1698375507.6709,2
-0.4727,-0.1325,-0.0181,0.5089,-0.5583,1.5234,0.3015,0.3764,9.6662,1.1966,-1.2608,-0.1034,-0.9822,8.7537,-1.8364,2.4947,0.0569,0.2328,-0.6651,8.8284,-2.2476,1.2562,-0.332707,0,1698375507.68,3
-0.4698,-0.0188,-0.0135,0.5041,-0.5894,1.5269,0.031,0.016,9.8679,0.9559,-0.9149,0.2167,-0.8768,8.8415,-1.8339,2.4578,0.1405,0.1756,-0.6151,8.8862,-2.2577,1.243,-0.035403,0,1698375507.6904,4
-0.4649,0.0996,-0.0089,0.487,-0.5981,1.7154,-0.2711,-0.0691,9.5031,0.9605,-0.3624,-0.0186,-0.8613,8.9562,-1.7734,2.3642,0.237,0.0195,-0.5651,8.9639,-2.2447,1.233,0.150899,0,1698375507.7004,4
-0.4577,0.2271,-0.004,0.464,-0.5964,1.8482,-0.5943,0.1497,9.2409,1.0881,-0.0441,0.482,-0.6695,9.0638,-1.8104,2.5297,0.3555,-0.187,-0.5647,9.0147,-2.1724,1.2536,0.242242,0,1698375507.711,5
-0.4493,0.3614,0.0014,0.4847,-0.3726,1.6395,-0.8565,0.2229,9.0645,1.268,0.3404,1.3907,-0.3927,9.101,-1.8704,2.6884,0.5028,-0.3031,-0.5865,9.0675,-2.0448,1.2479,0.145043,0,1698375507.7212,6
-0.4406,0.4639,0.0071,0.5235,-0.1349,1.4458,-1.0635,0.1817,8.8676,1.4272,0.6842,1.7463,-0.2288,9.1223,-1.8009,2.6665,0.711,-0.3983,-0.5762,9.1416,-2.0066,1.2283,-0.100138,0,1698375507.7302,7
-0.432,0.5619,0.0139,0.5597,0.0616,1.3116,-1.1971,0.1099,8.7631,1.4897,0.8958,1.4728,-0.1927,9.1069,-1.6674,2.6159,0.9955,-0.1817,-0.5494,9.2152,-1.9789,1.2074,-0.292399,0,1698375507.7407,7
-0.4237,0.6669,0.0213,0.6036,0.2842,1.2039,-1.2778,0.0648,8.7212,1.4671,1.0679,0.7832,-0.2567,9.0846,-1.5537,2.6188,1.2326,0.1467,-0.5908,9.2898,-1.894,1.1648,-0.324464,0,1698375507.7514,8
-0.4154,0.6962,0.0288,0.6447,0.5397,1.0887,-1.3158,0.0065,8.715,1.4255,1.1649,-0.0362,-0.3115,9.0905,-1.4732,2.629,1.2923,0.2263,-0.6434,9.3517,-1.8834,1.1097,-0.196673,0,1698375507.7601,9
-0.4074,0.6862,0.0364,0.6758,0.7356,1.018,-1.3266,-0.1112,8.857,1.3747,1.2036,-0.5909,-0.3174,9.1191,-1.4356,2.6752,1.1555,0.012,-0.7175,9.4166,-1.8735,1.0589,-0.068435,0,1698375507.7706,9
-0.3993,0.6983,0.0439,0.6972,0.8853,1.0219,-1.3426,-0.0359,9.1274,1.2525,1.2285,-0.8096,-0.322,9.1807,-1.4111,2.7055,0.8456,-0.3292,-0.8475,9.4957,-1.8287,1.0753,0.003959,0,1698375507.7809,10
-0.3908,0.7309,0.0515,0.7189,1.068,1.0181,-1.338,0.1266,9.2677,1.1754,1.2343,-0.8209,-0.3742,9.2346,-1.3846,2.718,0.3935,-0.6316,-0.9647,9.5643,-1.7891,1.0822,0.040766,0,1698375507.7904,11
-0.3822,0.7752,0.0592,0.7216,1.3368,1.0194,-1.3216,0.279,9.1954,1.22,1.1808,-0.695,-0.4778,9.2717,-1.3552,2.7401,-0.0675,-1.1103,-1.0966,9.6039,-1.7516,1.044,0.064861,0,1698375507.8006,12
-0.3738,0.7921,0.0668,0.7256,1.5695,1.0954,-1.3004,0.5292,9.1257,1.2753,1.0864,-0.5274,-0.6162,9.2874,-1.35,2.7759,-0.2399,-1.3739,-1.2425,9.6219,-1.7127,0.9672,0.09017,0,1698375507.8105,12
-0.3659,0.767,0.0744,0.7612,1.6949,1.2473,-1.2822,0.7694,9.0632,1.3305,0.9756,-0.346,-0.7577,9.3058,-1.3548,2.8093,-0.136,-1.2173,-1.3593,9.6185,-1.6784,0.9189,0.118714,0,1698375507.8206,13
-0.3591,0.6995,0.0819,0.7791,1.7701,1.3917,-1.2647,0.9387,9.2373,1.3333,0.8367,-0.241,-0.8933,9.3542,-1.3685,2.7856,-0.0127,-1.1766,-1.4278,9.6263,-1.6803,0.888,0.152392,0,1698375507.8304,14
-0.3543,0.597,0.0892,0.7718,1.8106,1.5056,-1.2238,0.9408,9.5727,1.2344,0.7237,-0.323,-1.0454,9.433,-1.3985,2.7372,0.1342,-1.4117,-1.4861,9.6561,-1.6856,0.83,0.198084,0,1698375507.8401,14
-0.3513,0.4964,0.0964,0.776,1.883,1.6239,-1.1477,0.7641,9.7761,1.0711,0.6495,-0.5018,-1.2105,9.5183,-1.3719,2.6986,0.3412,-1.4776,-1.5298,9.7239,-1.6464,0.8257,0.26245,0,1698375507.8503,15
-0.3496,0.407,0.1032,0.7695,1.86,1.83,-1.0469,0.6748,9.9455,0.8076,0.5775,-0.6832,-1.3804,9.5848,-1.301,2.6541,0.5276,-1.4759,-1.5611,9.7728,-1.5761,0.7806,0.346388,0,1698375507.8607,16
-0.3488,0.33,0.1102,0.7558,1.837,2.0369,-0.9115,0.6396,10.0945,0.5783,0.4763,-0.8983,-1.5329,9.6552,-1.2245,2.5491,0.628,-1.5948,-1.5683,9.8052,-1.5205,0.7327,0.449179,0,1698375507.8707,17
-0.3487,0.2558,0.1178,0.7555,1.8566,2.1968,-0.7458,0.5895,10.3011,0.3981,0.2861,-1.177,-1.659,9.7355,-1.1467,2.4225,0.6318,-1.803,-1.5399,9.8934,-1.5008,0.7372,0.556576,0,1698375507.8802,17
-0.3487,0.1912,0.1253,0.7413,1.7662,2.3917,-0.5728,0.6196,10.6067,0.2325,0.0276,-1.3321,-1.7578,9.862,-1.0603,2.3432,0.588,-2.0423,-1.4795,10.0069,-1.4659,0.7111,0.650716,0,1698375507.8905,18
-0.3484,0.1738,0.1327,0.7062,1.6312,2.5388,-0.3864,0.6555,10.9197,0.2386,-0.2047,-1.3929,-1.8762,10.0535,-0.9676,2.2835,0.4917,-2.2367,-1.3899,10.1594,-1.4143,0.7148,0.727518,0,1698375507.9002,19
-0.3464,0.2216,0.1391,0.6581,1.4044,2.4119,-0.1811,0.4001,12.0426,0.1439,-0.3852,-1.5791,-2.0526,10.3138,-0.9166,2.2569,0.359,-2.4942,-1.305,10.3866,-1.3689,0.7423,0.785394,0,1698375507.9104,20
-0.341,0.3294,0.1439,0.5929,1.0988,2.2563,0.0942,-0.3363,13.0867,0.1082,-0.4853,-1.8285,-2.3073,10.6573,-0.892,2.3194,0.1749,-2.7334,-1.2033,10.6872,-1.3143,0.7033,0.636293,0,1698375507.9212,20
-0.3329,0.4427,0.1471,0.5262,0.6339,2.3569,0.4171,-0.946,13.2372,0.1733,-0.5341,-2.0247,-2.6797,11.0564,-0.8339,2.4708,-0.0771,-2.8587,-1.0459,11.0494,-1.1958,0.6091,0.300419,0,1698375507.9305,21
-0.3239,0.5329,0.1485,0.4473,0.2796,2.2374,0.7225,-1.2952,13.0428,0.4526,-0.5805,-2.2258,-3.1736,11.4953,-0.6984,2.6031,-0.2567,-3.0089,-0.8546,11.4452,-0.9947,0.4958,0.01102,0,1698375507.9402,22
-0.3162,0.5795,0.1487,0.354,0.393,1.8097,1.062,-1.7116,12.6283,0.9807,-0.6268,-2.4995,-3.6449,11.8506,-0.5079,2.6992,-0.1917,-3.1638,-0.6992,11.7828,-0.7628,0.3773,-0.214237,0,1698375507.9511,22
-0.3109,0.5263,0.1486,0.277,0.5202,1.3675,1.4074,-1.9717,12.4955,1.334,-0.5988,-2.9584,-3.9522,12.0894,-0.2982,2.7644,0.0395,-3.0652,-0.5742,12.0175,-0.5971,0.269,-0.389675,0,1698375507.9603,23
-0.3095,0.4116,0.1486,0.2084,0.6668,0.9746,1.715,-1.9749,11.682,1.7112,-0.3981,-3.2833,-4.0315,12.2529,-0.0987,2.8413,0.1833,-2.8804,-0.4916,12.1247,-0.469,0.2352,-0.525942,0,1698375507.9702,24
-0.31,0.3172,0.1484,0.1525,0.7168,0.7948,1.8482,-1.4575,10.956,1.8714,0.0356,-3.2315,-3.846,12.3097,0.0252,2.9315,0.1637,-2.8655,-0.5306,12.1409,-0.3246,0.2495,-0.631785,0,1698375507.9812,25
-0.3097,0.2581,0.1481,0.0974,0.6559,0.6406,1.8051,-0.7962,10.9753,2.0234,0.5301,-3.0267,-3.471,12.3164,0.0646,2.9329,0.0863,-2.8028,-0.6776,12.1206,-0.2618,0.243,-0.713996,0,1698375507.9908,25
-0.3085,0.2528,0.1469,0.0192,0.5958,0.5711,1.7213,-0.4155,10.8612,2.2727,0.9483,-2.7143,-2.9309,12.2799,0.0096,2.8931,0.1855,-2.4857,-0.8805,12.0254,-0.2922,0.2157,-0.777843,0,1698375508.0001,26
-0.3042,0.3551,0.1426,-0.1043,-0.0236,0.8494,1.4781,0.041,10.9429,2.1365,1.2705,-2.435,-2.2872,12.1943,-0.1747,2.8143,0.514,-2.0851,-1.1172,11.8334,-0.4038,0.1865,-0.827435,0,1698375508.0107,27
-0.2943,0.6045,0.1333,-0.3143,-0.3743,0.9753,1.0933,0.3579,11.0421,2.1197,1.4092,-2.328,-1.6211,12.0447,-0.3938,2.6344,0.9481,-1.8285,-1.3872,11.5583,-0.585,0.2248,-0.865963,0,1698375508.0203,28
-0.2799,0.8576,0.1189,-0.6134,-0.1064,0.7748,0.6929,0.2326,10.8326,2.6607,1.5791,-2.3471,-0.9256,11.7767,-0.6276,2.4701,1.5009,-1.5499,-1.6549,11.2161,-0.7881,0.3339,-0.895889,0,1698375508.0302,28
-0.2636,0.9821,0.1014,-0.8673,0.0438,0.7861,0.3555,0.1625,10.5743,3.0702,1.8176,-2.4617,-0.2558,11.4579,-0.7969,2.3358,2.1041,-1.1538,-1.8313,10.8431,-0.9693,0.4662,-0.91913,0,1698375508.04,29
-0.2482,1.0821,0.0819,-1.0988,0.0888,1.0548,0.1838,0.104,10.411,3.12,2.1162,-2.6436,0.3121,11.1659,-0.8089,2.1741,2.657,-0.737,-1.86,10.4869,-1.1026,0.5987,-0.928896,0,1698375508.0504,30
-0.2351,1.1294,0.0609,-1.3942,-0.0373,1.3377,0.1629,-0.1263,10.4996,3.0902,2.6046,-2.8947,0.7541,10.8961,-0.7483,2.0586,3.1571,-0.3723,-1.6949,10.1914,-1.1746,0.7462,-0.894566,0,1698375508.0604,30
-0.2244,1.0917,0.0382,-1.6595,-0.292,1.5642,0.2157,-0.3406,10.6775,3.0764,3.0471,-2.9475,1.042,10.632,-0.6466,2.0306,3.5729,-0.1036,-1.3169,10.0077,-1.1765,0.9233,-0.809033,0,1698375508.0714,31
-0.2158,1.0293,0.0121,-1.8972,-0.535,1.6771,0.2789,-0.5863,10.6088,3.1139,3.706,-2.4133,1.2341,10.3509,-0.488,2.0613,3.8464,0.118,-0.824,9.881,-1.0935,1.1555,-0.758561,0,1698375508.081,32
-0.2082,0.9743,-0.0149,-2.1325,-0.7417,1.7852,0.3339,-0.8536,10.8484,2.8719,4.6729,-1.3669,1.477,10.0575,-0.2723,2.0912,3.9191,0.3548,-0.3337,9.7182,-0.946,1.404,-0.703997,0,1698375508.0908,33
-0.2007,0.9394,-0.0423,-2.3261,-1.0411,1.9518,0.4312,-1.1535,11.0272,2.6131,5.5203,-0.3198,1.7859,9.7516,-0.0487,2.1295,3.8708,0.5302,0.0702,9.5356,-0.7613,1.5462,-0.465665,0,1698375508.1002,33
-0.1927,0.9016,-0.0717,-2.5037,-1.4748,2.0557,0.5076,-1.3712,10.5372,2.6658,6.1145,0.312,2.0497,9.4699,0.1528,2.1789,3.7369,0.6784,0.4469,9.3959,-0.6179,1.5995,-0.139791,0,1698375508.1108,34
-0.1845,0.8567,-0.1012,-2.7122,-1.8568,2.0256,0.5337,-1.3692,10.0594,2.6901,6.4363,0.605,2.1872,9.247,0.2944,2.2644,3.5614,0.8668,0.8111,9.3048,-0.5466,1.6575,0.114582,0,1698375508.1201,35
-0.1769,0.8056,-0.1302,-2.7814,-2.0223,1.9008,0.5506,-1.462,9.8128,2.6192,6.6215,0.7244,2.1586,9.0857,0.3463,2.4356,3.4497,1.0506,1.1323,9.2479,-0.5228,1.7268,0.309856,0,1698375508.1301,36
-0.1701,0.7792,-0.158,-2.7482,-2.098,1.7153,0.5219,-1.8046,9.5645,2.5935,6.6349,0.5743,1.9497,9.005,0.372,2.6273,3.4047,1.2053,1.421,9.2582,-0.5296,1.7764,0.364153,0,1698375508.1402,36
-0.1642,0.7339,-0.1841,-2.7662,-2.1321,1.566,0.3369,-2.2735,9.2678,2.7446,6.6189,0.0265,1.5693,9.0284,0.4435,2.7845,3.3954,1.265,1.6342,9.3475,-0.5149,1.8269,0.187037,0,1698375508.1511,37
-0.1587,0.6744,-0.2078,-2.7238,-1.8782,1.1766,0.0961,-2.8484,8.9408,3.1614,6.7923,-0.7902,1.0897,9.1704,0.5127,2.9657,3.3847,1.256,1.7418,9.4615,-0.4132,1.8154,-0.076275,0,1698375508.1612,38
-0.1534,0.6493,-0.2296,-2.6109,-1.5097,0.6814,-0.0987,-2.9979,8.9169,3.1886,7.1843,-1.6682,0.6559,9.3482,0.5512,3.1407,3.4429,1.2924,1.759,9.5596,-0.2486,1.8409,-0.282446,0,1698375508.1708,38
-0.1486,0.6228,-0.25,-2.4872,-1.3394,0.3736,-0.3565,-2.7287,9.082,2.9019,7.7453,-2.2088,0.3257,9.5179,0.5808,3.3543,3.6159,1.4681,1.7697,9.6722,-0.2402,1.8984,-0.442548,0,1698375508.1802,39
-0.144,0.5875,-0.2687,-2.3525,-1.2744,0.143,-0.6488,-2.4434,9.2351,2.6674,8.2262,-2.1182,0.1162,9.6657,0.5955,3.6045,3.8756,1.7895,1.7244,9.7693,-0.3032,1.8923,-0.564716,0,1698375508.1904,40
-0.1391,0.5526,-0.2861,-2.2277,-1.1703,-0.077,-0.955,-2.1723,9.3663,2.3798,8.4498,-1.6916,0.0454,9.741,0.6366,3.7258,4.2136,2.138,1.5741,9.822,-0.3091,1.833,-0.591375,0,1698375508.2006,41
-0.134,0.5317,-0.3021,-2.099,-0.9599,-0.3511,-1.2389,-1.8998,9.4618,2.2052,8.2638,-1.0773,0.0996,9.7605,0.6916,3.7345,4.6449,2.1275,1.3244,9.8116,-0.2448,1.6582,-0.505121,0,1698375508.2103,41
-0.1292,0.5292,-0.3171,-1.9567,-0.6158,-0.6227,-1.4628,-1.6753,9.5341,2.1365,7.7239,-0.3105,0.2643,9.7726,0.7168,3.729,5.1017,1.8381,1.0129,9.7755,-0.1533,1.4916,-0.506441,0,1698375508.2201,42
-0.1247,0.511,-0.3317,-1.8509,-0.288,-0.8354,-1.6385,-1.5116,9.5517,2.0924,7.0081,0.3883,0.4724,9.7821,0.7218,3.6592,5.2035,1.6721,0.7659,9.7607,-0.1684,1.3761,-0.616638,0,1698375508.2303,43
-0.12,0.4883,-0.3461,-1.8011,-0.2916,-0.9605,-1.7902,-1.2826,9.5275,2.0192,6.0915,1.1926,0.7167,9.7453,0.6834,3.5366,4.7388,1.1231,0.5637,9.6868,-0.0991,1.307,-0.702231,0,1698375508.2404,43
-0.1149,0.508,-0.36,-1.7577,-0.3234,-1.0339,-1.9183,-1.0192,9.4576,1.9839,4.9945,2.0654,1.0607,9.6852,0.6338,3.3492,4.0149,0.0941,0.4655,9.5884,0.0795,1.2223,-0.768714,0,1698375508.2504,44
-0.1095,0.5322,-0.3735,-1.6943,-0.1512,-1.0695,-2.0034,-0.8486,9.4429,1.9686,3.81,2.9052,1.4599,9.6254,0.6105,3.0961,3.6409,-0.3438,0.3816,9.5765,0.2183,1.1902,-0.632557,0,1698375508.2603,45
-0.1041,0.5296,-0.3867,-1.5811,-0.0635,-1.0495,-2.0455,-0.7393,9.5395,1.9163,2.9241,3.8643,1.8425,9.5646,0.6205,2.9148,3.7757,-0.0192,0.2882,9.5765,0.3255,1.2201,-0.358135,0,1698375508.27,46
-0.0986,0.5495,-0.3992,-1.4799,-0.0686,-0.9735,-2.0348,-0.6277,9.6121,1.8605,2.6825,5.0123,2.1396,9.5039,0.6517,2.8272,3.7653,0.6104,0.3487,9.541,0.3551,1.2069,-0.112151,0,1698375508.2802,46
-0.0928,0.5682,-0.4112,-1.4033,-0.1374,-0.8667,-1.983,-0.5415,9.6818,1.7749,3.1058,6.2722,2.3398,9.4395,0.6784,2.7607,3.4266,0.791,0.4758,9.5121,0.3177,1.1489,0.133314,0,1698375508.2904,47
-0.0873,0.5588,-0.4227,-1.324,-0.1687,-0.7726,-1.8849,-0.5936,9.7608,1.6854,4.0048,7.3521,2.4611,9.3795,0.6946,2.7227,3.1627,0.4489,0.5872,9.4872,0.2739,1.0717,0.326546,0,1698375508.3012,48
-0.0819,0.5608,-0.4337,-1.2912,-0.3046,-0.6775,-1.766,-0.677,9.799,1.6004,4.9476,7.8629,2.4318,9.3305,0.6949,2.7212,2.9918,0.4482,0.6926,9.4938,0.2436,1.065,0.476748,0,1698375508.3104,49
-0.0763,0.5612,-0.4442,-1.2515,-0.5065,-0.5967,-1.6388,-0.7592,9.8596,1.5625,5.7106,7.7185,2.2736,9.2802,0.6836,2.7362,2.819,0.7835,0.8673,9.5222,0.1849,1.0268,0.593279,0,1698375508.3212,49
-0.0709,0.5461,-0.454,-1.2136,-0.6155,-0.586,-1.4837,-0.9192,9.7212,1.6041,6.2274,7.3217,2.0458,9.2087,0.6732,2.8137,2.7061,1.1325,1.0166,9.5082,0.1812,0.9419,0.68342,0,1698375508.3305,50
-0.0663,0.5147,-0.4626,-1.1395,-0.7676,-0.6006,-1.3215,-1.0719,9.6091,1.576,6.3143,6.6436,1.7411,9.1415,0.689,2.8577,2.6703,1.1973,1.0397,9.4631,0.22,0.8773,0.752834,0,1698375508.3401,51
-0.062,0.499,-0.47,-1.0088,-0.9717,-0.6274,-1.1784,-1.157,9.5561,1.5435,5.9234,5.6934,1.4013,9.1128,0.7213,2.8606,2.5923,1.269,1.1514,9.4778,0.0911,0.8824,0.805918,0,1698375508.3502,51
-0.0572,0.5222,-0.4761,-0.8922,-1.1474,-0.6609,-1.063,-1.1232,9.4934,1.5332,5.1945,4.6392,1.0888,9.1041,0.7183,2.8872,3.1623,1.2505,0.9987,9.4451,0.4152,0.463,0.847878,0,1698375508.3602,52
-0.0525,0.537,-0.4812,-0.7861,-1.2514,-0.6895,-0.9453,-1.1015,9.4007,1.5159,4.2611,3.3577,0.8034,9.0947,0.6962,2.8744,3.438,1.0649,0.8016,9.4362,0.974,0.0317,0.881742,0,1698375508.3706,53
-0.0483,0.5129,-0.4845,-0.6446,-1.4166,-0.6802,-0.8309,-1.0477,9.3396,1.5056,3.2949,2.0061,0.5409,9.1179,0.6929,2.865,3.1349,0.8952,0.8267,9.4962,0.9138,0.0404,0.908093,0,1698375508.3804,54
-0.0443,0.4767,-0.4854,-0.5025,-1.5832,-0.6559,-0.7104,-0.8849,9.2339,1.553,2.4038,0.8352,0.2986,9.1813,0.6815,2.8817,4.1053,0.9712,0.7542,9.5965,0.5504,-0.0948,0.911959,0,1698375508.3909,54
-0.0398,0.4536,-0.4851,-0.3941,-1.6385,-0.6482,-0.57,-0.7892,9.0414,1.6595,1.6716,0.0314,0.1028,9.2386,0.6294,2.8966,4.7389,1.2715,0.7506,9.6295,0.3721,-0.1974,0.793512,0,1698375508.4002,55
-0.0351,0.4374,-0.4848,-0.3014,-1.7428,-0.5518,-0.4448,-0.6432,9.1108,1.6442,1.1847,-0.3594,-0.0025,9.2587,0.5651,2.9039,5.1015,1.9402,0.9004,9.568,0.4354,0.0252,0.599253,0,1698375508.4103,56
-0.0307,0.4331,-0.4844,-0.2198,-1.8519,-0.4207,-0.3134,-0.5372,9.2278,1.4933,0.8721,-0.4031,-0.0263,9.2554,0.536,2.9005,6.0768,3.535,0.9103,9.5331,0.3485,0.3238,0.566557,0,1698375508.4212,57
-0.0262,0.452,-0.4831,-0.1216,-1.9691,-0.3103,-0.19,-0.5624,9.359,1.3528,0.6788,-0.0603,0.0175,9.236,0.5284,2.9101,5.7759,3.7478,0.7534,9.3985,0.1725,0.3768,0.659998,0,1698375508.4302,57
-0.0216,0.4812,-0.4796,0.0149,-2.1197,-0.2263,-0.084,-0.5927,9.2263,1.3186,0.567,0.5255,0.1034,9.1891,0.5324,2.9149,4.0134,2.5436,0.8021,9.3899,-0.0527,0.4477,0.735829,0,1698375508.4402,58
-0.017,0.487,-0.4734,0.1737,-2.1839,-0.2003,0.0682,-0.6319,8.8078,1.3572,0.4673,1.0146,0.177,9.1129,0.5419,2.8935,2.4067,1.5758,0.8202,9.3883,-0.1643,0.611,0.736476,0,1698375508.4503,59
-0.0123,0.4716,-0.4642,0.3661,-2.0821,-0.1962,0.2853,-0.7624,8.3117,1.3877,0.4163,1.4985,0.2401,9.0275,0.5677,2.9117,1.6734,1.1071,0.6639,9.2655,-0.0173,0.7753,0.536514,0,1698375508.4607,59
-0.0077,0.466,-0.4524,0.5883,-1.7934,-0.2391,0.5085,-1.0452,7.9795,1.3267,0.5369,1.9518,0.3096,8.9307,0.6362,2.9378,1.2359,1.1384,0.4948,9.185,0.0578,0.9053,0.225499,0,1698375508.4704,60
-0.0023,0.4906,-0.4392,0.7689,-1.4617,-0.2741,0.6878,-1.2761,7.7792,1.2712,0.6528,2.1208,0.3414,8.8215,0.7257,2.9217,0.9293,0.9642,0.3267,9.1247,0.0811,0.9643,-0.031611,0,1698375508.4808,61
0.0045,0.5521,-0.4254,0.9204,-1.2067,-0.2459,0.8203,-1.3183,7.7012,1.2429,0.6584,2.1233,0.3533,8.7558,0.7997,2.9469,0.5694,0.8212,0.203,9.116,0.0864,1.066,-0.238656,0,1698375508.4912,62
0.0125,0.6434,-0.4113,1.0565,-0.8032,-0.2607,0.9317,-1.3407,7.8464,1.2121,0.5247,2.0741,0.3123,8.7295,0.8661,2.982,-0.1619,0.5354,0.2033,9.128,0.0537,1.1241,-0.406708,0,1698375508.5004,62
0.0206,0.6979,-0.3974,1.1306,-0.2861,-0.0915,1.0284,-1.4003,7.8464,1.2448,0.143,1.5033,0.1534,8.7591,0.9173,2.9652,-1.1398,-0.387,0.2188,9.1443,0.0622,1.1126,-0.539173,0,1698375508.5101,63
0.0286,0.7128,-0.3839,1.1723,0.0865,0.0664,1.1104,-1.2796,7.9565,1.2664,-0.3733,0.4592,-0.0492,8.8807,0.916,2.9601,-1.9053,-1.464,0.1993,9.2023,0.1072,1.1029,-0.642062,0,1698375508.5201,64
0.0364,0.718,-0.371,1.2082,0.3657,-0.0172,1.1911,-1.0634,8.2109,1.2998,-0.8783,-0.3637,-0.2304,9.0417,0.8794,3.0136,-2.2587,-2.0023,0.2421,9.3276,0.1366,1.117,-0.721979,0,1698375508.5301,64
0.0438,0.7212,-0.3599,1.1637,0.6158,-0.0992,1.2674,-1.0408,8.5104,1.3763,-1.389,-0.9075,-0.4002,9.2133,0.8502,3.0501,-2.218,-1.7872,0.3759,9.5075,0.0601,1.1466,-0.784053,0,1698375508.5403,65
0.0508,0.7462,-0.3507,1.0884,0.7104,-0.1399,1.3242,-1.1043,9.0295,1.3125,-2.0098,-1.2617,-0.5559,9.415,0.8136,3.0301,-1.9562,-0.612,0.5352,9.7052,-0.0879,1.233,-0.832267,0,1698375508.551,66
0.0575,0.7373,-0.3437,0.9916,0.6807,-0.1323,1.3478,-1.0457,9.5348,1.1688,-2.6445,-1.4226,-0.6411,9.6358,0.7552,2.9883,-1.8151,-0.3153,0.6036,9.7925,-0.1403,1.1897,-0.869717,0,1698375508.5601,67
0.0638,0.7021,-0.3393,0.8306,0.6969,-0.1579,1.332,-0.9827,9.8359,1.0864,-3.1673,-1.4036,-0.645,9.8506,0.6842,2.9762,-1.7796,-1.2992,0.6985,9.8721,-0.1724,0.9895,-0.898805,0,1698375508.5711,67
0.0693,0.6881,-0.337,0.6764,0.7146,-0.1804,1.2567,-0.9336,10.112,0.9344,-3.5615,-1.3402,-0.625,10.089,0.5949,2.9762,-1.6831,-1.7439,0.8727,10.0515,-0.231,0.8576,-0.921399,0,1698375508.5802,68
0.0745,0.659,-0.3362,0.5363,0.7061,-0.2106,1.1054,-0.9144,10.4184,0.8319,-3.8864,-1.4137,-0.653,10.3673,0.525,2.9571,-1.5032,-1.5779,1.0242,10.2579,-0.2715,0.7736,-0.938948,0,1698375508.5905,69
0.0797,0.6194,-0.3362,0.4366,0.7021,-0.2733,0.8685,-0.9449,10.8095,0.873,-4.1124,-1.6463,-0.7335,10.6732,0.4549,3.0177,-1.2937,-1.5317,1.2297,10.506,-0.3543,0.7249,-0.952579,0,1698375508.6009,70
0.0844,0.5686,-0.335,0.4053,0.7075,-0.3441,0.5814,-1.0292,11.6187,0.975,-4.1584,-1.9855,-0.8344,10.9915,0.3622,3.1624,-1.2033,-1.8324,1.5427,10.8138,-0.4779,0.6985,-0.963167,0,1698375508.6108,70
0.0876,0.4884,-0.3311,0.4184,0.6674,-0.4366,0.28,-1.3081,12.4597,1.1395,-4.1131,-2.3104,-0.9724,11.3398,0.3186,3.291,-1.163,-2.256,1.877,11.1694,-0.5685,0.6647,-0.971391,0,1698375508.6202,71
0.0888,0.3787,-0.3249,0.4724,0.4982,-0.4898,-0.0615,-1.3833,12.8992,1.3849,-4.1351,-2.5968,-1.2006,11.7207,0.2788,3.3933,-0.9365,-2.6507,2.1417,11.5483,-0.6662,0.6478,-0.977778,0,1698375508.6306,72
0.0886,0.2755,-0.3176,0.5561,0.3651,-0.5566,-0.4401,-1.1811,12.9382,1.8074,-4.3694,-3.0783,-1.5287,12.0933,0.2289,3.4998,-0.6404,-2.924,2.338,11.9276,-0.8012,0.6208,-0.98274,0,1698375508.6405,72
0.0883,0.2133,-0.3102,0.5944,0.4236,-0.5983,-0.8168,-1.039,12.5802,2.326,-4.9954,-3.9048,-1.8449,12.4118,0.1969,3.5659,-0.4897,-3.2164,2.4078,12.2625,-0.9487,0.5525,-0.986593,0,1698375508.6514,73
0.0875,0.1401,-0.3036,0.5652,0.5602,-0.5872,-1.2279,-1.0026,12.3357,2.6638,-6.0024,-4.9515,-2.0334,12.6528,0.0757,3.5922,-0.4136,-3.4716,2.3546,12.4882,-1.1002,0.5093,-0.989587,0,1698375508.6619,74
0.0839,0.0094,-0.2981,0.5389,0.7541,-0.5692,-1.5352,-1.1944,12.4241,2.8171,-7.133,-5.8907,-1.9361,12.7975,-0.1338,3.6478,-0.2862,-3.5113,2.2153,12.5777,-1.2249,0.5191,-0.991912,0,1698375508.6723,75
0.076,-0.2474,-0.2928,0.5471,0.9465,-0.4734,-1.6257,-1.527,12.2864,2.9394,-7.874,-6.2912,-1.3416,12.7474,-0.3137,3.7726,-0.2061,-3.2022,1.9682,12.532,-1.295,0.5593,-0.993718,0,1698375508.6824,75
0.064,-0.5295,-0.2875,0.5755,1.0277,-0.4774,-1.5681,-1.8069,11.9082,3.0876,-7.94,-5.7894,-0.2662,12.5259,-0.3903,3.8876,-0.2265,-2.772,1.6144,12.4139,-1.3112,0.5894,-0.99512,0,1698375508.6925,76
0.0475,-0.8211,-0.2822,0.6122,1.0193,-0.6296,-1.37,-1.9605,11.5353,3.1939,-7.5293,-4.4767,1.0011,12.1884,-0.3955,3.9295,-0.1605,-2.4967,1.1444,12.2517,-1.2575,0.5511,-0.99621,0,1698375508.7022,77
0.0265,-1.1722,-0.275,0.6796,0.718,-1.0243,-0.722,-2.2032,10.8889,3.097,-5.622,-1.1613,3.2383,11.0739,-0.3337,3.8682,0.1529,-1.7015,0.2615,11.4622,-0.9507,0.3224,-0.994264,0,1698375508.7146,78
0.0016,-1.4975,-0.2653,0.7784,0.5469,-1.3084,-0.3855,-2.2095,10.5749,2.9534,-4.2887,0.5966,4.0623,10.3644,-0.2343,3.8534,0.2569,-1.211,-0.0624,10.9389,-0.6511,0.3878,-0.932825,0,1698375508.7253,78
-0.026,-1.8078,-0.2548,0.8686,0.4915,-1.6552,-0.0935,-2.1879,9.8644,2.9793,-3.1397,2.0507,4.7322,9.6545,-0.1089,3.7983,0.5021,-0.6868,-0.5713,10.3506,-0.4473,0.5284,-0.789371,0,1698375508.735,79
-0.0532,-1.9936,-0.2438,0.967,0.4076,-1.9671,0.1392,-2.0969,9.1075,2.932,-2.4783,2.8912,4.956,8.9692,-0.0263,3.72,0.4165,-0.3376,-1.0024,9.7721,-0.4922,0.74,-0.684179,0,1698375508.7457,80
-0.0815,-2.0903,-0.2317,1.0353,0.4004,-2.3415,0.2774,-1.9751,8.815,2.7771,-2.2994,3.2186,4.8332,8.3329,-0.0059,3.6573,0.5587,0.3827,-1.4591,9.3669,-0.5796,1.0887,-0.647589,0,1698375508.7562,80
-0.1113,-2.1972,-0.2196,1.0613,0.4084,-2.6596,0.2953,-1.7212,8.5439,2.8437,-2.4519,3.1439,4.2854,7.8318,-0.035,3.5899,0.4835,1.2456,-1.6911,8.9997,-0.8082,1.2246,-0.650351,0,1698375508.7658,81
-0.1395,-2.2649,-0.2082,1.0724,0.3183,-2.8445,0.2273,-1.2182,8.5744,3.0713,-2.8234,2.5993,3.2761,7.558,-0.1094,3.4959,-0.7118,1.5809,-1.5296,8.7081,-1.0622,1.2674,-0.704583,0,1698375508.7764,82
-0.1677,-2.3165,-0.1971,1.0602,0.3004,-2.9914,0.1072,-0.7223,8.7088,3.2084,-3.2646,1.705,1.917,7.5365,-0.2682,3.4333,-2.3168,1.8166,-1.2354,8.6302,-1.264,1.4391,-0.769221,0,1698375508.7863,83
-0.1962,-2.3395,-0.186,1.0716,0.2591,-3.0681,-0.0167,-0.1743,9.0147,3.1816,-3.6839,0.5894,0.3389,7.6964,-0.4935,3.4132,-3.8567,1.7995,-0.9064,8.7304,-1.5207,1.6397,-0.820748,0,1698375508.7959,83
-0.2231,-2.4019,-0.1749,1.0914,0.2467,-3.0407,-0.1139,0.3238,9.4004,3.2803,-4.2653,-0.7475,-1.3428,7.9751,-0.725,3.3664,-5.0314,1.6617,-0.5178,8.9562,-1.8297,1.7951,-0.860769,0,1698375508.8067,84
-0.2502,-2.4238,-0.1635,1.0597,0.0888,-2.8286,-0.1544,0.8189,9.6903,3.3147,-5.0168,-2.1148,-2.9447,8.2993,-0.9726,3.3214,-5.9336,1.8521,-0.1206,9.2388,-2.1758,1.9909,-0.891855,0,1698375508.817,85
-0.2768,-2.4119,-0.1527,1.0118,-0.0381,-2.5454,-0.104,1.2578,9.8321,3.4267,-5.7369,-3.2118,-4.2417,8.6414,-1.2311,3.3175,-6.4725,2.1909,0.1419,9.4492,-2.3885,2.2228,-0.916001,0,1698375508.827,86
-0.3009,-2.4196,-0.1434,1.0018,-0.0754,-2.1899,0.022,1.5169,9.5884,3.6537,-6.326,-3.8977,-4.8998,9.0063,-1.4698,3.2669,-6.4768,2.0842,0.2214,9.5448,-2.4861,2.3506,-0.934755,0,1698375508.8376,86
-0.3237,-2.3992,-0.1349,0.9743,-0.1248,-1.751,0.2222,1.6582,9.3577,3.6921,-6.6745,-3.909,-4.7182,9.3603,-1.6342,3.2589,-6.257,2.0278,0.2107,9.5909,-2.5424,2.3983,-0.949323,0,1698375508.8478,87
-0.3449,-2.3194,-0.128,0.8975,-0.0958,-1.3896,0.4305,1.9981,8.8582,3.5242,-6.7152,-3.3433,-3.8962,9.6628,-1.7062,3.2917,-6.1143,2.4117,0.1027,9.6286,-2.5126,2.4295,-0.960637,0,1698375508.8576,88
-0.3637,-2.1486,-0.1227,0.803,0.0094,-0.9155,0.703,2.2667,8.3396,3.3488,-6.6291,-2.6074,-2.685,9.8737,-1.7552,3.2265,-5.9516,2.6707,-0.1482,9.6857,-2.4441,2.3989,-0.969426,0,1698375508.8677,88
-0.3809,-2.0144,-0.1179,0.6977,0.1729,-0.3572,1.0477,2.1273,8.3452,3.4299,-6.4719,-1.706,-1.3063,10.0119,-1.8251,3.0629,-5.7007,2.8165,-0.4871,9.7774,-2.4031,2.3016,-0.976252,0,1698375508.8781,89
-0.3972,-1.8918,-0.1137,0.6179,0.3305,0.0338,1.3444,1.9215,8.4631,3.4868,-6.2544,-0.3778,-0.0019,10.0874,-1.9358,2.9235,-5.4701,2.9894,-0.7921,9.8438,-2.4223,2.2039,-0.981554,0,1698375508.8886,90
-0.4127,-1.7673,-0.1093,0.5821,0.4718,0.3793,1.6055,1.6983,8.4051,3.2952,-5.65,1.2521,1.0522,10.0551,-2.0421,2.7917,-5.3668,3.2191,-0.943,9.8486,-2.4717,2.1362,-0.985673,0,1698375508.8982,91
-0.4264,-1.692,-0.1041,0.5787,0.561,0.6672,1.8322,1.4372,8.4514,2.9855,-4.7229,2.3212,1.7346,9.9304,-2.0768,2.5551,-5.3189,3.0797,-1.1036,9.7839,-2.4863,2.1182,-0.988872,0,1698375508.9077,91
-0.4386,-1.6005,-0.0977,0.607,0.6772,0.8585,1.9912,1.1679,8.6202,2.777,-3.8912,2.6607,2.0584,9.7443,-2.0225,2.3102,-5.3559,2.6374,-1.1653,9.6515,-2.599,2.1691,-0.991356,0,1698375508.9172,92
-0.4494,-1.4625,-0.0907,0.6616,0.8066,1.0352,2.0772,0.974,8.8841,2.5806,-3.171,2.6561,2.1062,9.5294,-1.9325,2.1229,-5.3445,1.8703,-1.088,9.4921,-2.5876,2.2009,-0.993286,0,1698375508.9267,93
-0.4589,-1.3185,-0.083,0.7374,0.8458,1.256,2.092,0.7833,9.0271,2.4641,-2.5128,2.4394,1.9567,9.3251,-1.7923,2.0575,-4.9506,1.3554,-1.0517,9.3405,-2.4264,2.1179,-0.994785,0,1698375508.937,93
-0.4675,-1.2241,-0.0741,0.8197,0.8899,1.3098,2.0448,0.5175,8.7966,2.4776,-2.0629,2.0512,1.6114,9.1474,-1.6919,2.0218,-4.3386,1.5119,-1.033,9.1928,-2.4353,2.0104,-0.995949,0,1698375508.947,94
-0.4749,-1.1333,-0.0647,0.9029,0.9931,1.2537,1.9629,0.4116,8.655,2.4416,-1.491,1.6909,1.0654,9.0278,-1.6254,2.0223,-4.1999,1.6182,-0.9502,9.012,-1.8994,2.5018,-0.996854,0,1698375508.9571,95
-0.4807,-0.987,-0.055,0.9346,1.104,1.2629,1.8251,0.5426,8.7738,2.4328,0.1991,1.0156,0.4205,8.8994,-1.5279,2.0107,-5.2937,0.7795,-0.7189,8.9088,-1.6746,2.3837,-0.997556,0,1698375508.9669,96
-0.4848,-0.8409,-0.0451,0.9138,1.2626,1.3058,1.6491,0.6839,8.7418,2.3878,1.8322,0.0335,-0.2337,8.7807,-1.4713,1.7778,-6.0359,-0.6994,-0.6117,8.882,-2.0208,1.7048,-0.998102,0,1698375508.9774,96
-0.4874,-0.703,-0.0351,0.9193,1.344,1.3997,1.463,0.771,8.7917,2.2788,1.9776,0.4475,-0.5562,8.7641,-1.5182,1.7561,-5.2984,-1.0692,-0.5992,8.8455,-1.9907,1.5727,-0.998526,0,1698375508.987,97
-0.4888,-0.569,-0.0254,0.9326,1.3109,1.4947,1.2647,0.8455,8.8637,2.1731,1.6814,2.5604,-0.3694,8.7862,-1.6132,2.0114,-3.9952,-0.1412,-0.569,8.7931,-1.9189,1.4717,-0.998855,0,1698375508.9967,98
-0.4894,-0.4528,-0.0162,0.931,1.1923,1.5856,1.0417,0.9048,9.0268,2.026,1.765,4.8338,-0.0198,8.7802,-1.6117,2.0324,-2.8577,0.485,-0.508,8.682,-1.8704,1.33,-0.999087,0,1698375509.0073,99
-0.4899,-0.3617,-0.0077,0.9077,1.0329,1.6639,0.7977,0.9043,9.2079,1.8446,1.7711,6.3721,0.2738,8.7429,-1.5746,1.9282,-2.1097,0.2615,-0.4445,8.5867,-1.8335,1.118,-0.791276,0,1698375509.0169,99
-0.4903,-0.2899,0.0001,0.8735,0.852,1.7315,0.5358,0.8975,9.1846,1.6749,1.8832,6.8401,0.398,8.6845,-1.5199,1.909,-1.2935,0.2907,-0.4471,8.5584,-1.8161,1.0023,-0.406642,0,1698375509.0273,0
-0.4903,-0.2234,0.0071,0.8499,0.5333,1.8343,0.2556,0.9371,9.2367,1.4722,2.2686,6.3948,0.341,8.6381,-1.5146,1.9428,-0.4891,0.7779,-0.4534,8.5695,-1.8865,0.9456,-0.092607,0,1698375509.0368,1
-0.49,-0.1565,0.0134,0.7931,0.0881,1.9576,-0.037,0.9735,9.445,1.2865,2.4921,5.6203,0.2482,8.6287,-1.5847,2.0315,0.1196,1.0906,-0.431,8.6137,-1.9561,0.8905,0.15134,0,1698375509.0478,2
-0.4888,-0.0718,0.0195,0.7031,-0.5363,2.0312,-0.3622,0.8855,9.9939,1.1045,2.5915,4.6771,0.1318,8.6477,-1.6331,2.1029,0.5497,1.0694,-0.3873,8.6978,-1.9813,0.8531,0.34082,0,1698375509.0575,2
-0.4856,0.0483,0.0247,0.6564,-1.0273,2.0049,-0.6899,0.4815,10.3101,0.8622,2.5537,3.5728,-0.0345,8.6859,-1.6506,2.1551,0.9503,0.8756,-0.3609,8.7887,-1.9474,0.8174,0.487996,0,1698375509.068,3
-0.4794,0.2023,0.0295,0.6479,-1.2971,2.0117,-1.0423,0.4673,10.5736,0.3238,2.3547,2.4885,-0.2454,8.7466,-1.6441,2.22,1.367,0.9467,-0.3447,8.8794,-1.9246,0.7881,0.60231,0,1698375509.0778,4
-0.4712,0.3414,0.0351,0.6282,-1.3481,1.9181,-1.3315,0.465,10.438,0.0732,2.1712,1.5371,-0.48,8.8192,-1.6319,2.296,1.6772,1.2252,-0.3338,8.9952,-1.9307,0.819,0.6911,0,1698375509.0878,5
-0.4621,0.4843,0.0413,0.6188,-1.2275,1.6963,-1.516,0.0835,9.9529,0.3169,1.9673,0.8323,-0.6929,8.9022,-1.6056,2.4248,1.7996,1.2148,-0.3211,9.1141,-1.903,0.8449,0.76005,0,1698375509.0976,6
-0.4522,0.6186,0.0484,0.6675,-1.0503,1.507,-1.6184,-0.087,9.633,0.5842,1.7451,0.4288,-0.819,8.9604,-1.5309,2.5578,1.7668,0.9954,-0.3291,9.2238,-1.8562,0.8326,0.802515,0,1698375509.1078,6
-0.4418,0.7183,0.0566,0.7178,-0.6971,1.2492,-1.6724,-0.1691,9.0128,0.9741,1.5332,0.078,-0.8608,8.9951,-1.3969,2.6057,1.6511,0.7534,-0.3677,9.317,-1.7735,0.8279,0.612924,0,1698375509.1178,7
-0.4312,0.8146,0.0651,0.7328,-0.369,0.9952,-1.6998,-0.1853,8.6182,1.1859,1.28,-0.2372,-0.8873,9.0597,-1.2477,2.6253,1.5083,0.5083,-0.4242,9.4132,-1.7072,0.8596,0.256823,0,1698375509.1273,8
-0.4216,0.8507,0.0731,0.7593,-0.0444,0.7869,-1.6623,-0.2739,8.4581,1.2549,1.1277,-0.372,-0.9376,9.1725,-1.1594,2.6769,1.3599,0.2464,-0.4842,9.5502,-1.6715,0.9037,0.005156,0,1698375509.1374,9
-0.4124,0.85,0.0815,0.8182,0.1345,0.6472,-1.6145,-0.3434,8.646,1.2059,1.0852,-0.4333,-1.0347,9.3311,-1.1105,2.757,1.1637,-0.0593,-0.5435,9.7197,-1.6199,0.9264,-0.139675,0,1698375509.1479,10
-0.4032,0.8437,0.0901,0.8511,0.2616,0.5524,-1.5338,-0.3627,8.8911,1.0598,1.0497,-0.5627,-1.1936,9.494,-1.0675,2.8465,0.9184,-0.4144,-0.6161,9.8898,-1.5609,0.9179,-0.219897,0,1698375509.1574,10
-0.3947,0.8307,0.0976,0.8039,0.3671,0.4966,-1.461,-0.3151,9.175,0.9787,0.9113,-0.7757,-1.3818,9.6378,-1.0482,2.9035,0.7032,-0.7072,-0.6938,10.03,-1.5001,0.8519,-0.326152,0,1698375509.1672,11
-0.387,0.834,0.1044,0.7413,0.3902,0.4592,-1.4325,-0.1969,9.5278,0.9812,0.693,-1.0196,-1.5612,9.7709,-1.0544,2.9443,0.5079,-0.9236,-0.7609,10.1317,-1.5023,0.7908,-0.465561,0,1698375509.1785,12
-0.3801,0.7972,0.1119,0.7078,0.4883,0.374,-1.4223,-0.0658,9.6989,1.0163,0.4851,-1.324,-1.6963,9.8927,-1.0624,2.9436,0.3622,-1.1615,-0.8514,10.2087,-1.4872,0.7335,-0.58296,0,1698375509.1882,13
-0.3757,0.6852,0.1184,0.6939,0.6224,0.2677,-1.3888,0.0814,9.9329,0.9735,0.2682,-1.6559,-1.7655,10.0127,-1.0571,2.9113,0.2294,-1.4358,-0.9464,10.2873,-1.4648,0.7285,-0.674207,0,1698375509.198,14
-0.3741,0.5469,0.1234,0.6714,0.7359,0.203,-1.2938,0.1552,10.0847,0.827,0.1594,-1.9606,-1.803,10.153,-1.0239,2.8637,0.041,-1.7358,-0.9921,10.3815,-1.4882,0.7564,-0.744483,0,1698375509.2076,14
-0.3738,0.4256,0.1286,0.6332,0.8301,0.1929,-1.1314,0.1957,10.1561,0.5784,0.1687,-2.2254,-1.8441,10.306,-0.9818,2.8225,-0.1351,-2.0105,-1.0003,10.5071,-1.4444,0.7054,-0.796846,0,1698375509.2172,15
-0.3739,0.315,0.1337,0.603,0.9936,0.2242,-0.9047,0.2632,10.2859,0.3899,0.1648,-2.4455,-1.916,10.4465,-0.9418,2.7848,-0.3912,-2.2435,-0.9708,10.6765,-1.4019,0.6898,-0.828204,0,1698375509.2267,16
-0.374,0.2279,0.1383,0.5827,1.1461,0.3482,-0.6408,0.3482,10.6146,0.3253,0.0526,-2.6873,-2.052,10.6075,-0.8841,2.7334,-0.6958,-2.4475,-0.9309,10.8797,-1.3902,0.7346,-0.838959,0,1698375509.2371,17
-0.3739,0.1803,0.1429,0.5484,1.1683,0.5681,-0.3412,0.4567,11.0477,0.3986,-0.2321,-2.9935,-2.2531,10.8144,-0.8526,2.7066,-0.9077,-2.5523,-0.9085,11.0966,-1.3878,0.7962,-0.846774,0,1698375509.247,18
-0.3734,0.1807,0.1474,0.5129,1.2605,0.7372,-0.0088,0.5833,11.2508,0.6207,-0.6263,-3.3958,-2.5234,11.0889,-0.8305,2.6884,-1.0936,-2.7104,-0.8765,11.3185,-1.3948,0.8603,-0.86756,0,1698375509.2568,18
-0.3709,0.2489,0.1506,0.4452,1.2299,0.9171,0.2613,0.7583,11.3122,1.0228,-1.0263,-3.8028,-2.8212,11.4146,-0.7843,2.7013,-1.2576,-3.0181,-0.8492,11.5444,-1.3796,0.9125,-0.89508,0,1698375509.2671,19
-0.3646,0.3885,0.1513,0.3267,0.9189,1.1088,0.4813,0.6569,11.5789,1.4369,-1.3412,-4.2239,-3.1198,11.7513,-0.7139,2.7447,-1.2656,-3.3653,-0.8373,11.793,-1.3125,0.9533,-0.918506,0,1698375509.2771,20
-0.3558,0.5181,0.1503,0.204,0.564,1.2705,0.8013,0.1657,11.5081,1.8016,-1.4741,-4.6659,-3.3697,12.0783,-0.6437,2.8097,-0.7742,-3.329,-0.8289,12.0791,-1.2286,1.0179,-0.936701,0,1698375509.2874,21
-0.3471,0.5712,0.1478,0.0713,0.5338,1.3851,1.222,-0.4262,10.76,2.1635,-1.3993,-4.9615,-3.4683,12.293,-0.5589,2.9171,-0.0908,-2.9021,-0.7798,12.252,-1.1257,1.0606,-0.950832,0,1698375509.2974,22
-0.3402,0.5514,0.142,-0.0957,0.841,1.3198,1.6366,-0.8995,10.1875,2.3668,-0.9585,-4.8989,-3.3574,12.344,-0.4343,3.0717,0.3138,-2.6966,-0.7493,12.2226,-0.9699,1.0678,-0.961808,0,1698375509.3076,22
-0.3361,0.473,0.1318,-0.3302,1.0361,1.2341,1.9552,-0.9884,10.2461,2.4437,-0.0622,-4.4284,-2.9952,12.2302,-0.3087,3.1486,0.5685,-2.6707,-0.8484,12.0341,-0.8107,1.1247,-0.970335,0,1698375509.3175,23
-0.3344,0.4098,0.1173,-0.6419,1.1715,1.2409,2.2171,-0.7346,10.1973,2.6734,1.0319,-3.8439,-2.4369,12.0136,-0.1828,3.0812,0.7527,-2.5765,-1.0378,11.7201,-0.6918,1.1962,-0.976923,0,1698375509.327,24
-0.3319,0.4137,0.1012,-0.9314,0.5199,1.4507,2.2697,-0.0649,10.0685,3.0285,1.9848,-3.3652,-1.7927,11.7873,-0.1111,2.9829,0.9929,-2.1625,-1.2275,11.342,-0.7128,1.1157,-0.979965,0,1698375509.3373,25
-0.3256,0.4845,0.0827,-1.1564,-0.2453,1.4772,2.0439,0.4735,10.2122,3.2648,2.6049,-3.1886,-1.1697,11.5383,-0.1381,2.8921,1.1863,-1.9551,-1.4047,10.9225,-0.7478,1.0997,-0.980936,0,1698375509.3471,26
-0.3159,0.6306,0.0605,-1.4071,-0.2243,1.2525,1.6835,0.5033,10.2171,3.4152,2.9262,-3.2056,-0.5843,11.1899,-0.2593,2.7919,1.3126,-2.0138,-1.5389,10.4865,-0.7964,1.2393,-0.95148,0,1698375509.3574,26
-0.3044,0.7599,0.035,-1.7236,-0.0964,1.2526,1.2835,0.4668,10.0216,3.4908,3.1648,-3.1183,0.0152,10.7514,-0.4015,2.7007,1.588,-1.8243,-1.6364,10.0276,-0.9461,1.3186,-0.921914,0,1698375509.3671,27
-0.2924,0.8293,0.0094,-2.0012,-0.113,1.4674,0.9438,0.4211,9.9125,3.5632,3.4958,-2.8067,0.5703,10.3175,-0.4695,2.5908,1.9919,-1.6217,-1.6763,9.6444,-1.1182,1.4462,-0.930661,0,1698375509.3767,28
-0.2809,0.9142,-0.0158,-2.1221,-0.1113,1.6794,0.6808,0.276,9.9622,3.6293,3.868,-2.24,0.9555,9.9706,-0.4362,2.4689,2.3551,-1.4523,-1.5027,9.4323,-1.261,1.6239,-0.943881,0,1698375509.3871,29
-0.2694,0.9893,-0.0431,-2.2699,0.0058,1.7879,0.5642,-0.0221,9.7998,3.7248,4.2772,-1.5868,1.1098,9.7686,-0.3195,2.4124,2.6449,-1.2126,-1.1242,9.3865,-1.2653,1.937,-0.954286,0,1698375509.3972,30
-0.2582,1.0306,-0.0711,-2.481,-0.0608,1.8755,0.6024,-0.3254,9.7558,3.7273,4.7927,-0.9857,1.0942,9.6963,-0.1329,2.4711,2.8486,-0.9838,-0.6598,9.456,-1.1638,2.3042,-0.962184,0,1698375509.4074,30
-0.2473,1.0526,-0.0996,-2.6442,-0.2311,1.9589,0.7778,-0.6502,9.8696,3.5817,5.4088,-0.5444,0.9465,9.7006,0.1591,2.6464,2.9387,-0.8836,-0.1167,9.5666,-1.0169,2.5034,-0.860554,0,1698375509.4171,31
-0.2364,1.0419,-0.1285,-2.8121,-0.4988,1.982,0.9899,-1.0588,10.1261,3.3334,5.9077,-0.3942,0.7049,9.7547,0.4649,2.8458,2.9601,-0.8032,0.4995,9.6806,-0.8434,2.6011,-0.560708,0,1698375509.4265,32
-0.226,1.0315,-0.1573,-2.8895,-0.7843,1.907,1.1716,-1.478,10.3545,3.1865,5.836,-0.6499,0.455,9.8609,0.6843,2.9978,2.9367,-0.7732,1.0871,9.7859,-0.6646,2.5956,-0.212783,0,1698375509.4366,33
-0.2154,1.0464,-0.1851,-2.9046,-1.0639,1.7627,1.2676,-1.7756,10.401,3.0988,5.4172,-1.4085,0.2106,10.0051,0.8502,3.1482,2.8759,-0.8069,1.593,9.8977,-0.5379,2.511,0.057432,0,1698375509.447,34
-0.2042,1.0467,-0.2115,-2.917,-1.1713,1.4818,1.2093,-1.9265,10.3943,2.9797,4.9632,-2.3982,0.0472,10.1228,0.943,3.3364,2.8227,-0.834,1.9732,9.991,-0.492,2.3834,0.240245,0,1698375509.4568,34
-0.1928,1.0792,-0.2365,-2.9142,-1.0552,1.1052,0.9671,-2.0753,10.2201,2.9337,4.5024,-3.316,0.0822,10.205,0.8972,3.4668,2.8027,-0.8601,2.1781,10.0642,-0.4771,2.1968,0.23369,0,1698375509.4674,35
-0.1812,1.1167,-0.2602,-2.8975,-0.9889,0.73,0.5412,-2.1836,10.052,2.779,4.2595,-3.8968,0.3088,10.2176,0.7533,3.4812,2.7863,-0.9606,2.097,10.1069,-0.3929,1.9611,0.033541,0,1698375509.4767,36
-0.1697,1.1032,-0.2823,-2.7964,-0.9068,0.3619,0.0102,-2.1847,9.8268,2.5883,4.3802,-3.7745,0.6842,10.1529,0.6451,3.4582,2.7045,-1.1502,1.8328,10.0911,-0.2892,1.7397,-0.195705,0,1698375509.4872,37
-0.1585,1.0644,-0.303,-2.6185,-0.8182,0.0171,-0.5889,-2.1042,9.5664,2.5024,4.7654,-3.0071,1.2101,10.064,0.5768,3.3706,2.8882,-1.2063,1.5629,10.0241,-0.344,1.5255,-0.37485,0,1698375509.4972,38
-0.1474,1.0324,-0.3223,-2.4133,-0.6378,-0.4083,-1.1838,-1.9316,9.2871,2.5902,5.1012,-1.7199,1.8862,9.9461,0.5288,3.1753,3.4143,-0.9576,1.2953,9.9194,-0.4383,1.2357,-0.514166,0,1698375509.5073,38
-0.137,1.0426,-0.341,-2.2702,-0.2992,-0.9322,-1.726,-1.781,8.9162,2.7715,5.5563,-0.1807,2.5895,9.8425,0.5241,2.9287,4.1723,-0.8394,0.9366,9.771,-0.3296,0.9697,-0.622392,0,1698375509.5175,39
-0.1272,1.0312,-0.3598,-2.1674,-0.0174,-1.3851,-2.1914,-1.6648,8.6779,2.8962,5.8707,1.1751,3.1365,9.7607,0.4874,2.6731,5.0432,-0.8174,0.5805,9.6164,-0.2329,0.8147,-0.706701,0,1698375509.5274,40
-0.1183,1.0132,-0.3768,-2.0556,0.2092,-1.8017,-2.5384,-1.6531,8.3826,3.0268,5.814,2.3535,3.4592,9.683,0.4099,2.4983,5.3838,-0.5022,0.4231,9.4603,-0.2933,0.6956,-0.772186,0,1698375509.537,41
-0.1104,0.994,-0.3921,-1.9358,0.3784,-2.2036,-2.7773,-1.7087,8.0565,3.0894,5.8467,3.1324,3.594,9.5593,0.327,2.3999,5.0059,-0.5521,0.4594,9.2872,-0.4227,0.4874,-0.82305,0,1698375509.5475,42
-0.1033,0.9168,-0.4077,-1.7938,0.4458,-2.5832,-2.9373,-1.7049,8.0802,2.9946,5.9377,3.814,3.5998,9.3841,0.2648,2.4395,4.334,-1.1065,0.6444,9.1498,-0.523,0.2973,-0.862558,0,1698375509.558,42
-0.0964,0.8317,-0.4222,-1.6902,0.5937,-2.9496,-2.9788,-1.7885,8.0552,2.841,6.097,4.6077,3.6009,9.2195,0.2001,2.5337,4.1495,-1.1152,0.7182,9.0676,-0.4579,0.1914,-0.893244,0,1698375509.5677,43
-0.0902,0.7541,-0.4351,-1.6027,0.7247,-3.2111,-2.9191,-1.8481,7.9695,2.6233,6.2505,4.9012,3.5216,9.037,0.1873,2.5779,4.1111,0.0727,0.8054,9.0209,-0.4229,0.1318,-0.91708,0,1698375509.5783,44
-0.0842,0.6995,-0.4469,-1.5053,0.7268,-3.376,-2.8011,-1.7511,8.1286,2.3722,6.2471,4.7823,3.2734,8.86,0.2434,2.6435,3.3892,1.044,1.0819,8.9841,-0.656,-0.0035,-0.935593,0,1698375509.5876,45
-0.0782,0.6878,-0.4573,-1.3996,0.8665,-3.4222,-2.8305,-1.6964,8.026,1.9679,6.2146,4.7079,2.9699,8.7437,0.2923,2.7308,2.4349,0.3454,1.168,8.9347,-0.585,0.0537,-0.949972,0,1698375509.5977,46
-0.0719,0.6955,-0.4662,-1.2629,0.8343,-3.4368,-2.7766,-1.586,7.8664,1.5405,6.2004,5.0233,2.6574,8.6616,0.3851,2.8422,1.7618,-0.9641,1.072,8.8674,-0.1271,-0.0101,-0.961142,0,1698375509.6078,46
-0.0653,0.6945,-0.4733,-1.1048,0.5853,-3.4251,-2.4604,-1.2818,8.1915,1.285,6.3164,5.835,2.4394,8.5904,0.4919,2.9213,1.0736,-1.3464,1.1893,8.8146,0.2192,-0.3767,-0.969818,0,1698375509.6171,47
-0.059,0.6932,-0.4785,-0.9581,0.5239,-3.3879,-2.1372,-1.0603,8.4691,1.14,6.5036,6.9154,2.3399,8.5377,0.5751,2.949,1.3112,0.0517,1.3068,8.9428,0.311,-0.4075,-0.976555,0,1698375509.6271,48
-0.0525,0.6959,-0.4824,-0.8139,0.5146,-3.3905,-1.7975,-0.9767,8.5374,1.1338,6.4087,7.545,2.209,8.4933,0.6288,2.9088,2.48,2.1389,1.3375,9.1031,0.1685,-0.1869,-0.976774,0,1698375509.6368,49
-0.046,0.7017,-0.4844,-0.6486,0.4766,-3.3679,-1.4749,-0.8482,8.5828,1.1823,5.8629,7.3139,1.9769,8.4463,0.6285,2.7824,2.5663,2.6616,1.456,9.0843,0.0626,0.0061,-0.966705,0,1698375509.6472,50
-0.0392,0.7108,-0.4845,-0.5064,0.3884,-3.2915,-1.1817,-0.6658,8.68,1.0974,5.0299,6.5106,1.6919,8.4076,0.6326,2.6994,1.7539,1.4502,1.404,9.006,0.0266,0.0194,-0.963376,0,1698375509.6574,50
-0.0323,0.7197,-0.4842,-0.3962,0.1767,-3.0643,-1.1065,-0.4099,8.6032,1.0117,4.0642,5.3456,1.3801,8.38,0.6197,2.6839,0.7786,0.4565,1.3432,8.9613,0.0676,0.018,-0.971026,0,1698375509.6674,51
-0.0258,0.7145,-0.4839,-0.2816,-0.0628,-2.8068,-1.0183,-0.1492,8.6745,0.971,3.0985,4.1296,1.0766,8.377,0.5833,2.6658,-0.0368,0.4158,1.3351,8.991,0.0794,0.0573,-0.977491,0,1698375509.6773,52
-0.0195,0.6985,-0.4823,-0.1566,-0.397,-2.5412,-0.666,-0.1504,9.0102,0.8322,2.3655,3.3419,0.8528,8.4249,0.5675,2.6701,-0.4052,0.5026,1.1763,9.0504,0.0322,0.0966,-0.982517,0,1698375509.6868,53
-0.0132,0.6745,-0.4785,-0.0254,-0.7905,-2.127,-0.2986,-0.3737,9.2499,0.5413,1.9972,3.0002,0.6985,8.5316,0.539,2.6777,-0.6956,0.3442,0.9729,9.0982,0.0123,0.1066,-0.98642,0,1698375509.6985,54
-0.0066,0.6639,-0.4706,0.1431,-1.0287,-1.7678,0.0601,-0.5735,9.2818,0.3793,1.8296,2.843,0.5659,8.6225,0.4962,2.6799,-1.1376,-0.0379,0.8012,9.1179,-0.0167,0.066,-0.989452,0,1698375509.709,54
0.0006,0.6747,-0.4588,0.3689,-1.034,-1.5961,0.4281,-0.6593,9.0078,0.5121,1.7787,2.7797,0.4817,8.6546,0.4507,2.6939,-1.7477,-0.4361,0.6559,9.1006,-0.081,0.0232,-0.991807,0,1698375509.719,55
0.0078,0.6619,-0.4448,0.594,-0.7977,-1.5156,0.7958,-0.6864,8.4657,0.8519,1.8925,2.7451,0.4393,8.6632,0.4266,2.716,-2.3749,-0.7999,0.4852,9.0871,-0.1566,-0.0162,-0.993636,0,1698375509.7284,56
0.015,0.6782,-0.4299,0.7645,-0.5588,-1.4403,1.1283,-0.7804,8.1433,1.1198,1.998,2.6551,0.385,8.6817,0.441,2.7681,-2.8067,-0.7842,0.2869,9.1184,-0.1661,-0.0185,-0.995057,0,1698375509.7386,57
0.023,0.7384,-0.4151,0.9296,-0.2489,-1.3742,1.3959,-0.9985,8.1547,1.1677,1.8831,2.269,0.2457,8.7353,0.4402,2.8041,-2.8788,-0.3971,0.1321,9.1694,-0.1521,0.0116,-0.996161,0,1698375509.7491,58
0.0318,0.7825,-0.4014,1.0187,0.049,-1.339,1.5765,-1.1741,8.336,1.1427,1.47,1.5192,-0.0133,8.8323,0.4275,2.801,-2.7328,-0.0802,0.068,9.2507,-0.1819,0.1081,-0.997018,0,1698375509.7584,58
0.0399,0.7873,-0.3891,1.0035,0.2744,-1.3065,1.6758,-1.2353,8.6696,1.0359,0.8764,0.6701,-0.3167,8.9932,0.4374,2.8166,-2.5743,0.0253,0.0421,9.3601,-0.2258,0.1701,-0.997684,0,1698375509.7685,59
0.0472,0.7696,-0.3782,0.9829,0.5568,-1.3094,1.7053,-1.3369,9.1213,0.8671,0.262,-0.0448,-0.5738,9.1796,0.4136,2.8802,-2.4622,-0.0197,0.0178,9.475,-0.2701,0.2008,-0.998201,0,1698375509.7787,60
0.0541,0.7594,-0.3691,0.9437,0.6944,-1.3126,1.6353,-1.3976,9.5382,0.6666,-0.3192,-0.5047,-0.781,9.3808,0.3852,2.9436,-2.399,-0.0794,0.0449,9.645,-0.3513,0.269,-0.998603,0,1698375509.7884,61
0.0604,0.7465,-0.3617,0.8818,0.7015,-1.2945,1.482,-1.2772,9.9529,0.5059,-0.8389,-0.7843,-0.9233,9.5956,0.3514,2.9783,-2.3584,-0.0635,0.1426,9.8505,-0.4537,0.322,-0.998915,0,1698375509.7987,62
0.0661,0.6971,-0.3561,0.8083,0.6559,-1.2856,1.2804,-1.0845,10.3307,0.4742,-1.3396,-0.9871,-0.9716,9.7902,0.3094,2.9898,-2.2962,-0.0103,0.2603,10.0396,-0.5174,0.3731,-0.999157,0,1698375509.8088,62
0.0711,0.6319,-0.3516,0.7151,0.5166,-1.2676,1.0317,-0.9076,10.6692,0.4838,-1.9799,-1.2101,-1.0415,10.0149,0.2714,2.9702,-2.1781,-0.0627,0.3585,10.2222,-0.5851,0.3801,-0.999345,0,1698375509.8182,63
0.0756,0.5906,-0.3483,0.6088,0.4024,-1.2588,0.761,-0.8378,11.0094,0.4385,-2.7841,-1.6263,-1.1631,10.2672,0.1625,2.9335,-2.0241,-0.1273,0.4527,10.3865,-0.6948,0.3436,-0.999491,0,1698375509.8277,64
0.0798,0.5761,-0.3463,0.5034,0.2719,-1.2451,0.4945,-0.8349,11.2801,0.2962,-3.7027,-2.2094,-1.2601,10.4685,0.014,2.8871,-1.8056,-0.1697,0.5497,10.5139,-0.8132,0.3003,-0.999605,0,1698375509.8379,65
0.084,0.5404,-0.345,0.4113,0.1279,-1.2004,0.2551,-0.8431,11.4205,0.0833,-4.5398,-2.5763,-1.2468,10.6441,-0.1211,2.8564,-1.5285,-0.3331,0.6123,10.6056,-0.9132,0.2683,-0.999693,0,1698375509.8479,66
0.0884,0.5095,-0.3438,0.3493,-0.0086,-1.1614,0.0487,-0.9577,11.6007,-0.0649,-4.9292,-2.5715,-1.055,10.8396,-0.1773,2.8492,-1.292,-0.6032,0.6831,10.7121,-1.0007,0.245,-0.999762,0,1698375509.8575,66
0.0933,0.5153,-0.3422,0.3256,-0.101,-1.0782,-0.1236,-1.0769,11.8738,-0.2247,-4.9044,-2.025,-0.831,11.0427,-0.1414,2.8799,-1.2029,-0.8555,0.8181,10.8665,-1.0351,0.2159,-0.999815,0,1698375509.8679,67
0.0989,0.4997,-0.3388,0.353,-0.1804,-1.0426,-0.2769,-1.1066,12.1142,-0.2582,-4.6935,-1.1454,-0.7278,11.2238,-0.1049,2.9278,-1.1831,-1.072,0.9997,11.0265,-1.0222,0.1683,-0.999856,0,1698375509.8774,68
0.104,0.4665,-0.3323,0.4623,-0.2703,-1.0644,-0.3799,-1.1455,12.2863,0.0044,-4.4665,-0.59,-0.7439,11.3729,-0.0852,2.9551,-1.0714,-1.2981,1.4126,11.2181,-1.0327,0.1286,-0.999888,0,1698375509.8885,69
0.1074,0.4301,-0.3219,0.5961,-0.3801,-1.0328,-0.4317,-1.1279,12.3724,0.3672,-4.4249,-0.4007,-0.8714,11.5278,-0.045,2.9699,-0.81,-1.6399,1.7155,11.4757,-1.0556,0.122,-0.999913,0,1698375509.8981,70
0.1091,0.364,-0.31,0.7253,-0.531,-0.9877,-0.5282,-0.8764,12.2957,0.8299,-4.6048,-0.6839,-1.0932,11.7267,-0.0276,3.0467,-0.2772,-2.0315,1.6916,11.7733,-1.1143,0.137,-0.999933,0,1698375509.9077,70
0.1096,0.2843,-0.2989,0.8452,-0.54,-0.951,-0.7055,-0.4995,12.2527,1.3333,-4.8715,-1.3514,-1.3601,11.9897,-0.0516,3.1613,0.1461,-2.4218,1.6339,12.0513,-1.1738,0.1187,-0.999948,0,1698375509.9176,71
0.1096,0.2189,-0.2892,0.8642,-0.4055,-0.8612,-0.9428,-0.3711,12.2805,1.7543,-5.2857,-2.0658,-1.6807,12.2469,-0.0884,3.2485,0.3181,-2.6891,1.5311,12.2424,-1.3066,0.0842,-0.999959,0,1698375509.9272,72
0.1095,0.1861,-0.282,0.7934,-0.3173,-0.638,-1.2064,-0.4238,12.0757,2.1954,-5.8759,-2.7493,-2.0175,12.4114,-0.1642,3.3127,0.4968,-2.6632,1.4086,12.3459,-1.5263,0.0699,-0.999968,0,1698375509.9374,73
0.1088,0.1341,-0.2774,0.7124,-0.3075,-0.2831,-1.4649,-0.304,11.4922,2.6872,-6.4476,-3.3808,-2.2885,12.471,-0.2817,3.3535,0.6944,-2.5281,1.2658,12.4158,-1.6822,0.0303,-0.999975,0,1698375509.947,74
0.1058,-0.021,-0.2743,0.6231,-0.2113,-0.022,-1.6154,-0.1055,10.9324,3.1173,-6.8533,-3.8688,-2.3976,12.4187,-0.4302,3.4694,0.9178,-2.3149,1.102,12.4664,-1.721,0.0369,-0.999981,0,1698375509.9565,74
0.099,-0.2525,-0.2723,0.5126,0.0296,-0.2341,-1.6078,-0.2522,10.8014,3.4462,-6.9376,-4.0655,-2.1781,12.2249,-0.5722,3.6319,1.0657,-1.9158,0.8598,12.4111,-1.6365,0.1029,-0.999985,0,1698375509.9683,75
0.0864,-0.5034,-0.2702,0.4562,0.0002,-0.3904,-1.5252,-0.4206,10.6981,3.4572,-6.732,-3.9779,-1.665,11.9522,-0.548,3.7083,1.1559,-1.4235,0.5336,12.262,-1.489,0.17,-0.999988,0,1698375509.9772,76
0.0698,-0.8404,-0.266,0.4744,-0.1197,-0.2953,-1.3546,-0.4256,10.3904,3.4222,-6.4146,-3.7326,-1.0832,11.6383,-0.3946,3.7167,1.2456,-0.8945,0.2137,12.0925,-1.3331,0.1815,-0.999979,0,1698375509.9866,77
0.0509,-1.2019,-0.2588,0.5647,-0.0271,-0.4013,-1.0533,-0.6674,9.7547,3.6561,-6.1341,-3.4432,-0.5146,11.2162,-0.2409,3.7133,1.2581,-0.4444,-0.1131,11.7334,-1.2967,0.0939,-0.999957,0,1698375509.9967,78
0.0273,-1.5429,-0.2484,0.6736,0.136,-0.5535,-0.7307,-0.9227,9.1255,3.7998,-5.9613,-2.9202,0.1196,10.6345,-0.1248,3.7395,1.5184,-0.0019,-0.6644,11.1383,-1.2134,0.0596,-0.999913,0,1698375510.0067,78
0.0003,-1.8384,-0.2371,0.7341,0.2695,-0.647,-0.4835,-0.934,8.4836,3.7626,-5.8135,-2.0333,0.8244,9.929,-0.061,3.755,2.1825,0.6171,-1.4028,10.4729,-0.95,0.1179,-0.959617,0,1698375510.0171,79
-0.0282,-2.01,-0.2265,0.7702,0.3374,-0.8057,-0.3102,-0.9743,7.9345,3.7093,-5.6322,-0.9201,1.4699,9.1781,-0.0374,3.7417,2.6037,1.5614,-1.9814,9.8789,-0.8607,0.2127,-0.856095,0,1698375510.0273,80
-0.0568,-2.1113,-0.2167,0.7816,0.4021,-0.9869,-0.2123,-1.0537,7.635,3.576,-5.4633,0.0946,1.9158,8.4584,-0.06,3.7207,2.3224,2.294,-2.367,9.3183,-0.9006,0.3504,-0.719352,0,1698375510.0369,81
-0.0847,-2.2521,-0.2078,0.8057,0.3586,-1.1362,-0.1729,-1.0956,7.6017,3.2825,-5.4471,0.6287,2.1148,7.8632,-0.092,3.6554,1.2892,2.4975,-2.5173,8.8241,-0.9554,0.5958,-0.587777,0,1698375510.047,82
-0.1124,-2.4045,-0.1997,0.8376,0.2541,-1.2623,-0.1721,-1.0515,7.5379,3.1704,-5.5649,0.7497,2.0495,7.4399,-0.1203,3.5657,-0.0587,2.3147,-2.4227,8.4733,-1.009,0.8111,-0.575416,0,1698375510.0568,82
-0.1404,-2.4581,-0.1917,0.8325,0.2871,-1.4217,-0.1936,-0.9207,7.7698,3.2288,-5.6181,0.5513,1.5786,7.2697,-0.1447,3.5046,-1.1926,2.2477,-2.241,8.3091,-1.108,1.0488,-0.663244,0,1698375510.0677,83
-0.17,-2.5422,-0.1834,0.8213,0.3077,-1.5327,-0.2419,-0.7178,8.3209,3.2009,-5.5929,0.1066,0.5831,7.3673,-0.2168,3.5063,-2.0886,2.8373,-1.9644,8.334,-1.2964,1.3008,-0.738232,0,1698375510.0772,84
-0.1988,-2.6739,-0.175,0.8214,0.2571,-1.5396,-0.2709,-0.3207,8.8067,3.1651,-5.6262,-0.4459,-0.796,7.6422,-0.3281,3.5598,-3.0505,3.1828,-1.5305,8.4888,-1.4654,1.4535,-0.796668,0,1698375510.0867,85
-0.2251,-2.7684,-0.1663,0.8605,0.2605,-1.4939,-0.2576,0.2301,9.2292,3.2175,-5.8472,-1.2414,-2.2916,7.9875,-0.509,3.6617,-4.1001,3.1299,-0.9711,8.7838,-1.713,1.6788,-0.842063,0,1698375510.0973,86
-0.2513,-2.8082,-0.1569,0.9145,0.2426,-1.3613,-0.191,0.7015,9.5621,3.2726,-6.3358,-2.2906,-3.5947,8.3763,-0.743,3.771,-4.9529,3.1238,-0.5221,9.0749,-1.874,1.8893,-0.877326,0,1698375510.1066,86
-0.2756,-2.7756,-0.1472,0.967,0.2424,-1.1312,-0.0302,1.003,9.7609,3.3293,-6.7682,-3.3245,-4.4271,8.8012,-0.9165,3.8295,-5.836,3.0815,-0.2057,9.308,-1.9266,2.0696,-0.904715,0,1698375510.1176,87
-0.2986,-2.6527,-0.1371,0.9803,0.3582,-0.7983,0.208,1.208,9.5526,3.3861,-6.926,-4.021,-4.6867,9.2681,-1.0191,3.8734,-6.804,2.6592,0.0494,9.4942,-2.0178,2.1833,-0.92599,0,1698375510.1276,88
-0.3206,-2.4664,-0.1274,0.9717,0.471,-0.3855,0.4987,1.401,9.2865,3.4338,-7.0579,-4.0175,-4.3311,9.7334,-1.0981,3.8988,-7.244,2.0747,0.1052,9.6404,-2.0522,2.1921,-0.942514,0,1698375510.1377,89
-0.3401,-2.3171,-0.1191,0.9541,0.5979,0.0596,0.8251,1.5596,9.159,3.401,-7.1041,-3.1831,-3.4072,10.0672,-1.1952,3.835,-7.1187,1.7945,0.0378,9.7363,-2.0097,2.137,-0.955349,0,1698375510.1486,90
-0.3591,-2.2087,-0.1114,0.889,0.7596,0.4726,1.1638,1.4774,9.1565,3.3005,-7.1741,-1.5396,-2.1672,10.284,-1.2803,3.7244,-6.6448,1.386,-0.1211,9.7913,-1.9203,1.9309,-0.965318,0,1698375510.1587,90
-0.3765,-2.0549,-0.1046,0.8498,0.8629,0.8761,1.4712,1.3827,8.9765,3.1965,-7.0631,0.5696,-0.8009,10.3672,-1.4014,3.5522,-5.9017,0.9827,-0.3399,9.8735,-1.9236,1.6767,-0.973062,0,1698375510.1694,91
-0.3925,-1.9083,-0.0981,0.813,0.9603,1.2218,1.7219,1.3731,8.8495,3.0285,-6.4366,2.3688,0.4545,10.3302,-1.5187,3.2883,-5.1924,0.9344,-0.5312,9.9029,-2.0218,1.4699,-0.979076,0,1698375510.1796,92
-0.4077,-1.8285,-0.092,0.7572,1.0086,1.4691,1.9115,1.2889,9.0507,2.8209,-5.4703,3.3752,1.3104,10.2368,-1.5802,2.9703,-4.8136,0.9992,-0.6543,9.7566,-1.5393,1.184,-0.983748,0,1698375510.1891,93
-0.4212,-1.7653,-0.0864,0.7459,1.0743,1.6577,2.0588,1.1625,9.2282,2.5644,-4.8219,3.4386,1.7025,10.0742,-1.6595,2.6142,-6.4905,-0.4861,-0.668,9.4705,-1.1711,0.6002,-0.987376,0,1698375510.1984,94
-0.4335,-1.6764,-0.0799,0.7666,1.0972,1.852,2.1536,1.0791,9.1973,2.3093,-4.7879,2.7736,1.69,9.8696,-1.716,2.2981,-8.1271,-3.3186,-0.9377,9.262,-1.3454,0.2193,-0.990195,0,1698375510.2082,94
-0.4452,-1.5828,-0.0729,0.7631,1.0365,2.0301,2.1837,1.0648,9.2046,2.0973,-4.804,1.8771,1.4511,9.654,-1.7169,2.0881,-6.8357,-3.0576,-1.2691,9.3456,-1.5845,0.51,-0.992384,0,1698375510.2178,95
-0.4563,-1.4695,-0.0653,0.7596,0.9911,2.1157,2.1739,0.9869,9.2186,1.9778,-4.63,1.012,1.1377,9.4381,-1.7023,1.9447,-5.2387,-1.3337,-1.3092,9.3689,-1.7376,0.6664,-0.994085,0,1698375510.2272,96
-0.4657,-1.3042,-0.0571,0.7619,1.036,2.1216,2.1169,0.8182,9.0771,1.923,-4.2868,0.2497,0.798,9.2603,-1.6624,1.8358,-4.3357,-1.1026,-1.2866,9.152,-1.6475,0.5662,-0.995405,0,1698375510.2366,97
-0.4732,-1.1405,-0.0485,0.7686,1.0316,2.1381,2.0155,0.666,8.967,1.778,-3.5959,-0.541,0.4046,9.0944,-1.5747,1.7691,-3.4759,-0.8608,-1.2001,8.9924,-1.6681,0.6111,-0.996431,0,1698375510.2467,98
-0.4794,-0.9997,-0.039,0.7868,1.0248,2.1561,1.8967,0.5496,8.9963,1.6263,-2.7738,-0.458,0.0325,8.9407,-1.4855,1.7622,-2.7696,-0.0731,-1.0391,8.905,-1.7737,0.7567,-0.997021,0,1698375510.2584,98
-0.4838,-0.8598,-0.0282,0.8274,1.0383,2.1598,1.7558,0.4838,9.0405,1.5446,-0.5792,-0.8776,-0.501,8.7478,-1.2078,1.6122,-2.2313,0.7824,-0.9047,8.8503,-1.8212,0.9419,-0.910486,0,1698375510.2684,99
-0.4857,-0.689,-0.0176,0.8732,1.013,2.1934,1.5782,0.4611,9.0946,1.4363,1.1323,-1.6884,-1.0808,8.5894,-1.0393,1.3132,-1.8217,0.8266,-0.8404,8.7936,-1.8006,0.9582,-0.622764,0,1698375510.2792,0
-0.4857,-0.5307,-0.0077,0.9195,0.8953,2.2945,1.3875,0.4998,9.243,1.2428,0.4548,0.1122,-0.9337,8.6035,-1.2648,1.4658,-1.3595,0.6794,-0.7776,8.7367,-1.8389,0.91,-0.263012,0,1698375510.2891,1
-0.4852,-0.4094,0.0015,0.9577,0.6803,2.3977,1.1686,0.6266,9.4342,1.0556,0.3793,3.7171,-0.1744,8.6345,-1.4137,1.8001,-0.7943,0.8735,-0.711,8.6781,-1.8734,0.8779,0.018974,0,1698375510.2986,2
-0.485,-0.3266,0.0095,0.9269,0.452,2.4387,0.9082,0.7075,9.4348,0.9578,1.3706,6.7387,0.5143,8.6054,-1.3741,1.7555,-0.2343,1.1334,-0.6891,8.5791,-1.8482,0.7848,0.238008,0,1698375510.3081,2
-0.4848,-0.2591,0.0169,0.8841,0.1664,2.4389,0.573,0.9534,9.5308,0.6445,2.1303,8.2147,0.9572,8.5617,-1.3863,1.5963,0.1291,1.2509,-0.6422,8.5116,-1.8499,0.7042,0.408138,0,1698375510.3172,3
-0.4835,-0.1467,0.0229,0.8424,-0.2897,2.388,0.1942,1.0276,10.1171,0.1058,2.5951,8.348,1.1188,8.5143,-1.4114,1.6016,0.2572,1.0507,-0.5751,8.5091,-1.8638,0.6571,0.540283,0,1698375510.3265,4
-0.4803,-0.0084,0.0283,0.769,-0.719,2.4116,-0.1409,0.6284,10.3443,-0.2984,3.1616,7.6385,1.0432,8.5187,-1.3931,1.7454,0.3413,0.7444,-0.5136,8.5411,-1.8808,0.6066,0.642925,0,1698375510.3367,5
-0.4744,0.1423,0.0337,0.7224,-1.0227,2.4742,-0.5,0.305,10.0312,-0.3548,3.5282,6.4704,0.8183,8.5879,-1.4495,1.8857,0.4918,0.7144,-0.4352,8.6109,-1.8798,0.5692,0.722649,0,1698375510.3472,5
-0.4654,0.3304,0.039,0.6776,-1.4281,2.5304,-0.8898,0.5536,10.3281,-0.4408,3.381,4.8976,0.4809,8.6633,-1.5254,1.9845,0.6726,0.7942,-0.37,8.7151,-1.8536,0.5702,0.784573,0,1698375510.3573,6
-0.4543,0.5225,0.0437,0.6375,-1.5444,2.5452,-1.2002,0.6802,10.4079,-0.5613,2.9411,3.2525,0.1131,8.7568,-1.5584,2.0613,0.8719,0.7965,-0.3373,8.8257,-1.8386,0.5848,0.832651,0,1698375510.3671,7
-0.442,0.7039,0.0492,0.629,-1.386,2.4484,-1.4225,0.3738,9.8047,-0.3964,2.4409,1.8902,-0.222,8.8712,-1.5613,2.1634,1.0949,0.777,-0.3264,8.9554,-1.8254,0.6151,0.869852,0,1698375510.3769,8
-0.4289,0.8464,0.0564,0.6292,-1.1325,2.3136,-1.579,0.1642,9.4629,-0.1893,1.9441,0.9651,-0.4703,8.9721,-1.5406,2.2529,1.3839,0.969,-0.3528,9.0292,-1.8483,0.5165,0.898557,0,1698375510.3865,9
-0.4158,0.9188,0.0643,0.6498,-0.7251,2.1986,-1.6205,-0.0577,9.196,-0.0016,1.6299,0.3973,-0.6376,9.0258,-1.5076,2.2855,1.7167,1.1308,-0.387,9.0571,-1.8489,0.383,0.92093,0,1698375510.3976,9
-0.402,0.9694,0.073,0.6948,-0.263,2.1051,-1.6016,-0.0683,8.8214,0.2839,1.5511,0.039,-0.7463,9.063,-1.427,2.2868,1.9496,1.0767,-0.4178,9.1432,-1.7751,0.4226,0.938433,0,1698375510.4077,10
-0.3881,0.9948,0.082,0.7675,-0.1571,1.989,-1.6039,0.1364,8.7553,0.5134,1.4295,-0.172,-0.789,9.1365,-1.3021,2.3324,2.0214,0.8754,-0.4528,9.2544,-1.6825,0.5105,0.938294,0,1698375510.4183,11
-0.3759,0.9769,0.0905,0.7947,-0.115,1.8724,-1.5683,0.2249,9.0329,0.5645,1.3043,-0.3597,-0.8178,9.2102,-1.1684,2.3582,1.9621,0.4429,-0.4757,9.3972,-1.5914,0.5294,0.738762,0,1698375510.4276,12
-0.3654,0.9585,0.0988,0.772,0.2493,1.7596,-1.4971,0.125,9.1857,0.657,0.9701,-0.7229,-0.882,9.291,-1.0954,2.3796,1.8888,0.0993,-0.4927,9.5853,-1.5272,0.4975,0.501319,0,1698375510.4379,13
-0.357,0.9042,0.1067,0.7823,0.4751,1.615,-1.4597,-0.0098,9.4113,0.768,0.2879,-1.3825,-1.0247,9.4293,-1.0766,2.4577,1.8754,-0.0475,-0.5135,9.7702,-1.486,0.4524,0.489488,0,1698375510.4475,13
-0.3507,0.8048,0.1142,0.7849,0.6267,1.4046,-1.429,-0.1832,9.8207,0.8148,-0.6766,-2.3072,-1.2532,9.6191,-1.0668,2.5539,1.8581,-0.297,-0.5527,9.9478,-1.447,0.4199,0.434174,0,1698375510.4572,14
-0.3465,0.7032,0.1202,0.7347,0.6873,1.2182,-1.3633,-0.4002,10.2506,0.7246,-1.8979,-3.2718,-1.4895,9.8296,-1.0266,2.6083,1.7969,-0.72,-0.5934,10.1349,-1.3899,0.4012,0.194892,0,1698375510.4666,15
-0.3447,0.562,0.1251,0.6671,0.725,1.0538,-1.2382,-0.5477,10.3195,0.625,-3.299,-4.0202,-1.6678,10.0354,-0.9566,2.6225,1.5841,-0.9914,-0.5952,10.3224,-1.3205,0.3867,-0.071848,0,1698375510.4766,16
-0.3453,0.4062,0.1302,0.6223,0.7415,0.904,-1.0677,-0.4484,10.2836,0.4948,-5.2028,-4.0586,-1.7024,10.2192,-0.9108,2.6424,1.2066,-1.2142,-0.5889,10.4759,-1.2295,0.3619,-0.279073,0,1698375510.4869,16
-0.3473,0.2768,0.1353,0.5983,0.6912,0.8651,-0.8015,-0.2098,10.444,0.3127,-5.8371,-3.4808,-1.5452,10.3548,-0.7675,2.7591,0.7754,-1.5159,-0.6385,10.6063,-1.1325,0.3642,-0.439986,0,1698375510.4966,17
-0.3493,0.1892,0.1406,0.5971,0.6701,0.9159,-0.4661,0.0744,10.568,0.2816,-4.979,-2.8983,-1.2953,10.4561,-0.6802,2.796,0.3978,-1.7733,-0.7308,10.7386,-1.1059,0.3989,-0.56487,0,1698375510.5079,18
-0.3497,0.1505,0.1473,0.6133,0.5992,1.0474,-0.1382,0.4731,10.8862,0.2548,-4.2588,-2.387,-1.1728,10.5682,-0.7325,2.7817,0.0721,-2.0746,-0.828,10.8509,-1.1352,0.4074,-0.661905,0,1698375510.5182,19
-0.3489,0.132,0.154,0.6082,0.5032,1.2476,0.1531,0.8031,11.2763,0.1848,-3.4949,-1.782,-1.2157,10.7122,-0.7442,2.8333,-0.209,-2.4595,-0.9061,10.947,-1.1761,0.4011,-0.737373,0,1698375510.5278,20
-0.347,0.1658,0.1592,0.5587,0.6825,1.409,0.4433,0.7791,11.8859,0.2742,-2.8223,-1.1143,-1.3563,10.943,-0.7784,2.7716,-0.3753,-2.9698,-0.965,11.0481,-1.2239,0.3888,-0.795999,0,1698375510.5378,20
-0.3425,0.2884,0.1624,0.4739,0.9931,1.4824,0.7104,0.5683,12.11,0.6622,-2.3135,-0.5002,-1.6676,11.2454,-0.836,2.7213,-0.484,-3.5621,-0.9673,11.2098,-1.2549,0.356,-0.841488,0,1698375510.5477,21
-0.3342,0.4441,0.1639,0.3836,0.7274,1.7584,0.8881,0.656,11.9334,0.9548,-1.9268,-0.6582,-2.2135,11.5221,-0.7907,2.6817,-0.5037,-4.0299,-0.8788,11.4615,-1.2421,0.3201,-0.876791,0,1698375510.5582,22
-0.3233,0.5674,0.164,0.3018,0.3138,2.0452,1.0696,0.4817,11.7775,1.161,-1.7501,-1.6109,-2.9128,11.78,-0.6405,2.6552,-0.2992,-4.2841,-0.7103,11.7455,-1.2381,0.2743,-0.90407,0,1698375510.5674,23
-0.3132,0.6342,0.1639,0.2361,0.2185,2.072,1.3273,-0.0241,11.6661,1.4446,-1.5881,-2.448,-3.5719,12.0372,-0.4806,2.6939,0.1196,-4.4356,-0.4891,11.9866,-1.2261,0.2187,-0.925284,0,1698375510.5784,23
-0.3055,0.6187,0.163,0.1421,0.0626,1.8056,1.6493,-0.3151,11.8799,1.7057,-1.3003,-2.9687,-4.0293,12.2659,-0.3975,2.7839,0.5566,-4.5166,-0.2508,12.1705,-1.1462,0.2064,-0.941957,0,1698375510.5882,24
-0.302,0.5122,0.1602,0.0024,0.3088,1.424,2.0213,-0.4559,11.852,1.8765,-0.9694,-3.3288,-4.186,12.413,-0.368,2.9,0.7979,-4.5327,-0.0692,12.2572,-0.9904,0.2208,-0.954914,0,1698375510.5977,25
-0.3024,0.3927,0.1539,-0.2118,0.6108,1.2827,2.2693,-0.5578,11.6683,1.9918,-0.6604,-3.802,-4.0615,12.3592,-0.2227,2.9333,0.884,-4.4906,-0.0593,12.2595,-0.7993,0.2198,-0.964979,0,1698375510.6075,26
-0.3025,0.3142,0.1433,-0.4894,0.4917,1.3161,2.306,-0.4193,11.6061,2.0258,-0.1222,-3.9854,-3.5761,12.1472,-0.0681,2.9163,0.927,-4.1827,-0.2758,12.1168,-0.6169,0.2175,-0.972795,0,1698375510.6174,27
-0.3009,0.3157,0.1289,-0.7302,0.32,1.2372,2.2306,-0.2664,11.9333,1.8699,0.7757,-3.4342,-2.6546,11.9488,-0.1223,2.8952,0.9587,-3.6018,-0.599,11.8645,-0.5207,0.2018,-0.978646,0,1698375510.6275,27
-0.2961,0.4114,0.111,-1.0066,0.2301,1.1112,1.9998,-0.2756,11.8111,1.9719,1.7671,-2.6593,-1.5145,11.7442,-0.282,2.7435,1.0626,-3.0185,-0.9293,11.5552,-0.5206,0.1496,-0.968012,0,1698375510.6377,28
-0.2876,0.552,0.09,-1.3396,0.2599,1.1565,1.6382,-0.2608,11.0157,2.2974,2.8712,-1.794,-0.3843,11.4123,-0.4483,2.5556,1.3196,-2.4095,-1.2966,11.1293,-0.6233,0.1571,-0.855764,0,1698375510.6475,29
-0.2765,0.6634,0.0668,-1.5724,0.151,1.3314,1.2347,-0.2414,10.5809,2.5523,3.9427,-0.6942,0.7424,10.9915,-0.6772,2.4242,1.7503,-1.8103,-1.6885,10.6201,-0.8293,0.2556,-0.654401,0,1698375510.6579,30
-0.2644,0.7463,0.0418,-1.7187,0.0451,1.5934,0.8845,-0.2436,10.3058,2.7973,4.8244,0.3289,1.7913,10.5647,-0.8747,2.2665,2.2645,-1.3875,-1.9971,10.1324,-1.0714,0.4102,-0.569731,0,1698375510.6674,30
-0.2525,0.8425,0.0152,-1.8976,-0.0507,1.8514,0.6237,-0.4303,10.0598,3.0294,5.5748,0.8755,2.5251,10.1723,-0.8961,2.09,2.7663,-0.9884,-2.0979,9.7721,-1.3198,0.6273,-0.633229,0,1698375510.6772,31
-0.2418,0.9105,-0.0113,-2.093,-0.1431,2.0468,0.4799,-0.6525,10.0074,3.1404,5.9532,0.7112,2.8241,9.8634,-0.797,1.9903,3.2199,-0.4364,-1.9248,9.555,-1.4566,0.8927,-0.715015,0,1698375510.6865,32
-0.2319,0.9489,-0.0392,-2.2644,-0.3197,2.1925,0.484,-0.7998,10.0501,3.1974,6.1014,-0.1492,2.6839,9.6682,-0.6133,2.0364,3.5697,0.1739,-1.4742,9.5011,-1.4541,1.1657,-0.777432,0,1698375510.6966,33
-0.2222,0.9912,-0.07,-2.5059,-0.594,2.2512,0.5998,-0.9826,10.1588,3.2485,6.1321,-1.5334,2.1933,9.6218,-0.3673,2.1457,3.7442,0.6496,-0.8575,9.561,-1.3354,1.4082,-0.79691,0,1698375510.7105,34
-0.2106,0.9987,-0.1078,-2.745,-0.8736,2.2959,0.8073,-1.2774,10.0242,3.2346,6.0281,-3.05,1.4815,9.7053,-0.0885,2.3391,3.7477,0.9186,-0.1731,9.688,-1.152,1.6155,-0.613652,0,1698375510.7201,34
-0.1994,0.9944,-0.144,-2.8193,-1.193,2.2633,1.0042,-1.5455,10.1254,3.0582,6.2831,-4.2143,0.748,9.8591,0.1842,2.585,3.695,1.1266,0.5221,9.8358,-0.9507,1.7754,-0.277211,0,1698375510.7292,35
-0.1907,0.9841,-0.1716,-2.865,-1.3022,2.0334,1.1172,-1.8836,10.1781,2.985,6.9388,-4.7173,0.1578,10.0219,0.415,2.838,3.643,1.5234,1.1473,9.9709,-0.7608,1.8786,-0.013235,0,1698375510.7387,36
-0.1816,0.9648,-0.1987,-2.9489,-1.433,1.8012,1.0873,-2.1283,9.9827,2.9175,7.6134,-4.468,-0.2222,10.1323,0.556,3.1508,3.5881,1.7567,1.6193,10.1021,-0.6103,1.8884,-0.023162,0,1698375510.7482,37
-0.172,0.9861,-0.2237,-2.9071,-1.4613,1.4325,0.8834,-2.2109,9.7898,2.8466,8.2099,-3.6923,-0.3,10.158,0.5875,3.4127,3.5549,1.7444,1.8692,10.2063,-0.5049,1.8172,-0.233041,0,1698375510.7578,38
-0.1624,0.9954,-0.2465,-2.7782,-1.3615,0.9766,0.5095,-2.1821,9.5858,2.752,8.6331,-2.812,-0.0938,10.0966,0.5494,3.5301,3.6202,1.8166,1.8442,10.2654,-0.4484,1.699,-0.404164,0,1698375510.7693,38
-0.1521,0.9748,-0.2696,-2.6837,-1.151,0.4656,0.0026,-2.1498,9.5112,2.5245,8.8075,-2.216,0.19,10.0035,0.4907,3.5245,3.8167,1.7492,1.5598,10.2688,-0.4042,1.5405,-0.53668,0,1698375510.7782,39
-0.142,0.9788,-0.2898,-2.5486,-0.8699,-0.0719,-0.5659,-2.1268,9.3364,2.3957,8.6525,-1.9721,0.4854,9.9729,0.4806,3.4589,4.0452,1.4181,1.1344,10.234,-0.3555,1.3804,-0.639559,0,1698375510.7878,40
-0.133,0.9976,-0.3069,-2.3693,-0.6455,-0.5746,-1.1455,-2.0005,9.2298,2.3462,8.3028,-1.4401,0.9714,9.9943,0.51,3.3971,4.22,1.1141,0.7017,10.1795,-0.2963,1.2109,-0.719944,0,1698375510.7978,41
-0.1241,0.9859,-0.3234,-2.1788,-0.3316,-1.1193,-1.674,-1.9446,9.1104,2.3467,8.1164,-0.7439,1.6181,10.0074,0.5453,3.1836,4.2698,1.0092,0.3545,10.0641,-0.2169,1.0031,-0.782472,0,1698375510.8075,41
-0.1157,0.9482,-0.3392,-2.0371,-0.0579,-1.5995,-2.1093,-1.8806,9.0062,2.2814,8.1497,-0.2714,2.1196,9.6982,0.6121,3.1311,3.9906,0.9976,0.2255,9.9901,-0.3455,0.9531,-0.83104,0,1698375510.8173,42
-0.1078,0.9117,-0.3538,-1.9427,0.2689,-2.0602,-2.432,-1.7847,9.0059,2.2758,8.312,0.2576,2.5193,9.4164,0.7083,3.0882,3.778,0.9341,0.2292,9.929,-0.563,0.8865,-0.868764,0,1698375510.8264,43
-0.1004,0.8887,-0.368,-1.8499,0.4776,-2.4624,-2.6674,-1.6813,9.0547,2.2546,8.2343,0.6804,2.662,9.4231,0.7208,2.8731,3.7544,0.9393,0.2185,9.7472,-0.4951,0.6939,-0.898065,0,1698375510.8363,44
-0.0928,0.8424,-0.3827,-1.7958,0.563,-2.7237,-2.7982,-1.4863,9.0837,2.0452,8.0138,1.0676,2.5955,9.2737,0.6294,2.8728,3.6064,1.2075,0.2366,9.5269,-0.3729,0.5518,-0.920824,0,1698375510.847,45
-0.0856,0.7722,-0.3967,-1.7506,0.5935,-2.9368,-2.8163,-1.3242,8.9736,1.8577,7.9192,1.5013,2.5447,9.1089,0.5609,2.8445,3.3305,1.2513,0.2804,9.2969,-0.3406,0.4775,-0.938502,0,1698375510.8565,45
-0.0794,0.7352,-0.4101,-1.6652,0.5865,-3.1637,-2.7639,-1.2921,8.7799,1.816,7.5509,2.0017,2.3331,8.9891,0.5432,2.8164,2.99,1.063,0.3494,9.0886,-0.2943,0.4717,-0.952232,0,1698375510.8668,46
-0.0734,0.7074,-0.4229,-1.5372,0.6365,-3.1713,-2.6703,-1.331,8.7372,1.777,7.0134,2.9691,2.202,8.8618,0.5134,2.9009,2.7384,1.1834,0.4687,8.906,-0.2453,0.4049,-0.962898,0,1698375510.877,47
-0.0682,0.6473,-0.435,-1.4478,0.637,-3.1643,-2.5431,-1.366,8.7721,1.7156,6.6351,4.1261,2.245,8.7598,0.4809,2.9909,2.496,1.3656,0.5954,8.7839,-0.1938,0.3225,-0.97118,0,1698375510.8889,48
-0.0632,0.5859,-0.4472,-1.3977,0.4856,-3.2995,-2.3975,-1.2767,8.9375,1.6014,6.3259,5.041,2.1975,8.6631,0.5144,3.0595,2.1586,1.4116,0.7108,8.7674,-0.163,0.3053,-0.977609,0,1698375510.8989,48
-0.058,0.5604,-0.4583,-1.3098,0.3442,-3.3569,-2.2477,-1.1336,9.0186,1.478,6.1864,5.9817,2.0353,8.6041,0.5972,3.1536,1.6963,1.5156,0.8644,8.7968,-0.1237,0.3352,-0.982601,0,1698375510.9089,49
-0.0531,0.5512,-0.4669,-1.2033,0.1918,-3.3272,-2.0811,-0.9585,8.9854,1.3583,6.2748,7.1453,1.8608,8.5879,0.6622,3.2182,1.1634,1.6474,1.0408,8.8413,-0.0497,0.3756,-0.986482,0,1698375510.9199,50
-0.0483,0.5348,-0.4741,-1.1038,-0.0271,-3.2284,-1.8962,-0.7191,9.0427,1.2718,6.5267,8.3771,1.7755,8.578,0.7251,3.2381,0.637,1.6979,1.1889,8.8933,0.0399,0.3919,-0.989499,0,1698375510.9303,51
-0.0434,0.5139,-0.4797,-0.9846,-0.1998,-3.1524,-1.7152,-0.4661,9.1457,1.2981,6.6908,9.0306,1.7177,8.5821,0.7712,3.2152,0.1437,1.6944,1.2962,8.9611,0.0969,0.402,-0.991844,0,1698375510.9404,52
-0.0382,0.5163,-0.4836,-0.8346,-0.3671,-3.0508,-1.5149,-0.2653,9.1996,1.267,6.342,8.7345,1.5221,8.5882,0.7923,3.123,-0.2863,1.7293,1.3762,9.0395,0.1091,0.4317,-0.993665,0,1698375510.9507,52
-0.0327,0.5289,-0.4851,-0.656,-0.5269,-2.8731,-1.2648,-0.174,9.0752,1.1843,5.4566,7.695,1.1996,8.5828,0.781,3.0316,-0.6578,1.7657,1.3991,9.098,0.1068,0.4345,-0.995079,0,1698375510.9608,53
-0.0275,0.5301,-0.4847,-0.4855,-0.6732,-2.649,-1.0057,-0.1782,9.0996,1.1417,4.318,6.2229,0.8146,8.6214,0.7296,2.9775,-0.9727,1.6568,1.324,9.1319,0.089,0.4078,-0.996178,0,1698375510.9708,54
-0.022,0.5559,-0.4844,-0.3662,-0.8822,-2.4144,-0.7491,-0.2004,9.1648,1.1147,3.19,4.8017,0.4038,8.7401,0.6499,2.952,-1.1952,1.4427,1.1847,9.1967,0.0385,0.367,-0.997031,0,1698375510.9809,55
-0.0159,0.5843,-0.484,-0.2523,-1.0693,-2.2253,-0.5055,-0.2275,9.1366,1.0441,2.2175,3.6202,0.0243,8.86,0.515,2.9237,-1.3092,1.3019,1.0391,9.2548,-0.0704,0.3291,-0.997694,0,1698375510.9915,55
-0.0096,0.5826,-0.4815,-0.1104,-1.1976,-2.1075,-0.2566,-0.4055,9.2928,0.8556,1.4306,2.6701,-0.2688,8.9281,0.3718,2.8541,-1.3381,1.1994,0.885,9.2623,-0.1898,0.2984,-0.998209,0,1698375511.0023,56
-0.0034,0.5609,-0.4758,0.0805,-1.583,-1.622,0.3308,-0.8995,8.6871,0.805,0.4337,1.5551,-0.5705,8.9901,0.2395,2.6104,-1.3149,0.9581,0.5651,9.235,-0.2995,0.2741,-0.998609,0,1698375511.0147,57
0.003,0.5591,-0.4654,0.3516,-1.6921,-1.3849,0.5924,-0.8531,8.3444,0.8062,0.2564,1.3456,-0.5953,8.9949,0.2622,2.5114,-1.3732,0.8284,0.4461,9.2046,-0.252,0.2412,-0.998919,0,1698375511.0254,58
0.0088,0.5637,-0.451,0.5903,-1.6694,-1.2493,0.8092,-0.7562,8.118,0.8488,0.1903,1.194,-0.5805,8.9869,0.3224,2.4373,-1.4211,0.7455,0.3205,9.1728,-0.117,0.2633,-0.999161,0,1698375511.0372,59
0.0148,0.5601,-0.4345,0.8058,-1.5171,-1.19,0.958,-0.7352,8.1963,0.7905,0.1526,1.0447,-0.5451,8.9804,0.3941,2.4071,-1.4327,0.7545,0.2161,9.171,-0.0207,0.3229,-0.999348,0,1698375511.0502,59
0.0229,0.6058,-0.4165,1.0246,-1.167,-1.1968,1.0455,-0.9286,8.1767,0.7463,0.1071,0.8009,-0.5108,8.9735,0.4409,2.4376,-1.5099,0.7793,0.1947,9.2186,-0.0522,0.3901,-0.999494,0,1698375511.0605,60
0.0311,0.647,-0.4005,1.1351,-0.8321,-1.1816,1.0751,-1.0514,8.1195,0.7314,-0.0024,0.5169,-0.497,9.0085,0.4807,2.5036,-1.6158,0.7935,0.1984,9.3116,-0.1324,0.4938,-0.999607,0,1698375511.0708,61
0.0383,0.6356,-0.3873,1.1941,-0.519,-1.226,1.0597,-1.0874,8.272,0.7394,-0.1973,-0.0419,-0.5314,9.1057,0.5218,2.5192,-1.6956,0.8275,0.1852,9.3906,-0.197,0.5821,-0.999695,0,1698375511.0818,62
0.0456,0.6403,-0.3744,1.244,0.1556,-1.417,0.9458,-1.3577,9.0473,0.6348,-0.8872,-0.9143,-0.6598,9.3817,0.5404,2.7023,-1.8245,0.7185,0.2639,9.5761,-0.321,0.7268,-0.999763,0,1698375511.0957,63
0.0534,0.6505,-0.3609,1.1926,0.2566,-1.4362,0.8426,-1.2759,9.4893,0.5719,-1.2527,-0.8392,-0.7005,9.5543,0.5497,2.8107,-1.8696,0.557,0.3775,9.7008,-0.3627,0.7765,-0.999816,0,1698375511.1073,63
0.0613,0.6184,-0.3486,1.0644,0.3964,-1.4792,0.7146,-1.1671,9.8487,0.589,-1.6892,-0.6922,-0.7125,9.7344,0.5238,2.908,-1.8773,0.3234,0.5015,9.8522,-0.4096,0.7958,-0.999857,0,1698375511.1189,64
0.0678,0.5708,-0.3397,0.9717,0.4437,-1.4887,0.5718,-1.026,10.2331,0.5751,-2.2038,-0.5064,-0.6809,9.94,0.4617,2.9515,-1.8476,0.0678,0.6354,10.0243,-0.4917,0.7905,-0.999889,0,1698375511.1291,65
0.073,0.5311,-0.3334,0.9114,0.3909,-1.4364,0.4515,-0.8298,10.4833,0.5381,-2.8114,-0.2761,-0.641,10.1521,0.3595,2.953,-1.7665,-0.1639,0.764,10.1759,-0.6028,0.7404,-0.999914,0,1698375511.1391,66
0.0774,0.4971,-0.3288,0.8098,0.2792,-1.3694,0.3487,-0.7154,10.6418,0.5267,-3.429,-0.1219,-0.5708,10.3604,0.2074,2.9223,-1.6439,-0.3959,0.8861,10.3214,-0.7396,0.677,-0.999933,0,1698375511.1489,66
0.0812,0.4563,-0.3259,0.6656,0.1421,-1.2884,0.2364,-0.5829,10.9299,0.4542,-3.9352,-0.0754,-0.5026,10.5436,0.0893,2.9041,-1.5026,-0.617,1.0219,10.4884,-0.863,0.6255,-0.999948,0,1698375511.1599,67
0.0852,0.4338,-0.3246,0.5434,0.0493,-1.2434,0.1135,-0.584,11.3399,0.4202,-4.25,-0.0401,-0.4548,10.7567,0.0387,2.8707,-1.3997,-0.7734,1.1827,10.6823,-0.9476,0.5805,-0.99996,0,1698375511.1729,68
0.0898,0.4219,-0.3229,0.4607,-0.5292,-0.9846,-0.1854,-0.6015,12.0322,0.5669,-3.8588,0.4067,-0.3275,11.1436,-0.122,2.8919,-1.1957,-1.0694,1.3645,10.9997,-1.0108,0.5348,-0.999969,0,1698375511.1862,69
0.0942,0.3888,-0.3177,0.4469,-0.7125,-0.8941,-0.2883,-0.7174,11.9361,0.8834,-3.5439,0.4195,-0.3256,11.2775,-0.1118,2.9149,-0.9321,-1.3472,1.3636,11.2024,-1.0413,0.5146,-0.999976,0,1698375511.1978,70
0.0968,0.3302,-0.3088,0.5282,-0.871,-0.7283,-0.3674,-0.6783,11.7235,1.1723,-3.4807,-0.1679,-0.5193,11.4224,-0.0445,2.9799,-0.654,-1.6601,1.3518,11.471,-1.0797,0.5181,-0.999981,0,1698375511.2089,70
0.0975,0.2584,-0.299,0.6336,-0.9805,-0.516,-0.5217,-0.332,11.9456,1.2412,-3.77,-1.4133,-0.9637,11.639,-0.0081,3.0774,-0.4185,-1.9219,1.3325,11.7472,-1.1194,0.5189,-0.999985,0,1698375511.2193,71
0.0975,0.21,-0.2904,0.6629,-0.786,-0.3997,-0.7337,-0.2811,12.0383,1.3909,-4.3671,-2.9822,-1.5441,11.8545,-0.0094,3.16,-0.2142,-2.1969,1.245,11.9583,-1.1598,0.4947,-0.999989,0,1698375511.2299,72
0.0975,0.1572,-0.2843,0.6119,-0.4534,-0.2676,-0.9843,-0.4178,11.8472,1.7298,-5.1657,-4.4855,-2.0469,12.0093,-0.0732,3.2173,0.0476,-2.4369,1.1447,12.094,-1.249,0.4551,-0.999991,0,1698375511.2397,73
0.0974,0.1072,-0.2808,0.5456,-0.2906,-0.0466,-1.2463,-0.3849,11.8728,1.9126,-5.9949,-5.6225,-2.3752,12.0908,-0.23,3.3457,0.3523,-2.5312,1.0855,12.1552,-1.4203,0.4118,-0.999993,0,1698375511.2498,73
0.0966,0.0469,-0.2781,0.486,-0.2536,0.1294,-1.4925,-0.4558,11.8392,2.0479,-6.6883,-6.5107,-2.4735,12.1105,-0.3793,3.4574,0.566,-2.5713,0.9952,12.1504,-1.5561,0.4136,-0.999995,0,1698375511.2594,74
0.0938,-0.0715,-0.2748,0.4577,-0.1813,0.3078,-1.5899,-0.7507,11.6507,2.1626,-7.123,-6.812,-2.2779,12.0526,-0.4693,3.5052,0.7499,-2.53,0.8723,12.1202,-1.5303,0.4517,-0.999996,0,1698375511.2697,75
0.0874,-0.2606,-0.2701,0.4728,0.0554,0.4481,-1.4977,-1.1711,11.2925,2.2749,-7.516,-6.4708,-1.7741,11.8366,-0.5259,3.5148,0.8024,-2.4399,0.7341,12.007,-1.4335,0.52,-0.999996,0,1698375511.2805,76
0.0757,-0.514,-0.2634,0.508,0.2376,0.4105,-1.3315,-1.4984,11.0475,2.4141,-7.638,-5.8769,-1.012,11.5074,-0.4506,3.5041,0.6096,-2.3947,0.5237,11.7896,-1.2886,0.5675,-0.999995,0,1698375511.2907,77
0.0594,-0.7686,-0.2541,0.6156,0.3195,0.2875,-1.0831,-1.6407,10.6644,2.5726,-7.2863,-4.9417,-0.1636,11.1522,-0.3115,3.4877,0.3185,-2.2905,0.2316,11.5318,-1.1152,0.5675,-0.999993,0,1698375511.3005,77
0.0397,-1.0038,-0.243,0.7891,0.4061,0.0744,-0.776,-1.7475,10.0205,2.7923,-6.7796,-3.7271,0.6215,10.7157,-0.2047,3.4668,-0.0023,-2.1304,-0.1469,11.1864,-0.9836,0.5327,-0.999993,0,1698375511.3115,78
0.0154,-1.2893,-0.2307,0.9236,0.5423,-0.2547,-0.4505,-1.9234,9.2411,3.0193,-6.1849,-2.1982,1.3668,10.1466,-0.1479,3.4758,-0.1832,-1.8441,-0.5833,10.7201,-0.8758,0.4664,-0.999994,0,1698375511.3214,79
-0.012,-1.6557,-0.2185,1.0185,0.5928,-0.5785,-0.1449,-2.0515,8.633,3.1748,-5.3633,-0.5275,2.1519,9.5393,-0.1408,3.4952,-0.3093,-1.516,-0.9725,10.1941,-0.8172,0.4382,-0.999995,0,1698375511.3317,80
-0.039,-1.9222,-0.2079,1.0733,0.5945,-0.9221,0.0849,-2.1673,8.3331,3.2947,-4.3494,1.1452,2.8461,8.9118,-0.1207,3.4955,-0.4387,-1.2731,-1.3344,9.6601,-0.7701,0.4331,-0.999996,0,1698375511.3419,80
-0.0676,-2.0468,-0.1978,1.0417,0.4728,-1.564,0.2345,-1.9135,8.154,3.1954,-3.387,2.7843,3.2648,7.8604,-0.0464,3.3532,-1.4748,-0.2874,-1.5491,8.8912,-0.7538,0.4961,-0.999997,0,1698375511.3536,81
-0.0993,-2.196,-0.1882,0.9978,0.3513,-1.7736,0.2057,-1.5881,8.3659,3.1319,-3.3861,2.4734,2.8302,7.5869,-0.0448,3.3195,-2.2345,0.1507,-1.4457,8.7085,-0.8056,0.5682,-0.999998,0,1698375511.3643,82
-0.1316,-2.4051,-0.1791,0.9716,0.1479,-1.904,0.1185,-1.0874,8.719,3.1348,-3.4136,1.7393,1.9388,7.5503,-0.0847,3.3505,-3.0189,0.6512,-1.2427,8.6725,-0.9481,0.6418,-0.999998,0,1698375511.3753,83
-0.1641,-2.5937,-0.1695,0.9361,0.0572,-2.0514,-0.0378,-0.5252,9.0258,3.1172,-3.4315,0.9101,0.6686,7.7457,-0.1873,3.4628,-3.7552,1.0962,-0.9461,8.8145,-1.1923,0.7454,-0.999999,0,1698375511.3866,84
-0.1971,-2.7152,-0.1592,0.9164,0.0285,-2.1411,-0.1941,0.067,9.4357,3.1252,-3.5255,0.1492,-0.7637,8.0743,-0.3723,3.6019,-4.3816,1.3796,-0.6186,9.0772,-1.5404,0.9064,-0.999999,0,1698375511.3985,84
-0.2305,-2.7944,-0.148,0.9297,0.0889,-2.1383,-0.2934,0.5128,9.7325,3.2274,-3.8653,-0.7426,-2.1259,8.4373,-0.6318,3.677,-4.8443,1.6731,-0.365,9.359,-1.9348,1.1507,-0.999999,0,1698375511.409,85
-0.261,-2.835,-0.1375,0.9376,0.0361,-1.9487,-0.3262,0.9393,9.7876,3.1463,-4.5536,-1.9244,-3.2734,8.8039,-0.9434,3.7041,-5.1313,2.051,-0.1724,9.5979,-2.2376,1.4425,-0.999999,0,1698375511.4188,86
-0.2868,-2.829,-0.1288,0.9208,0.0036,-1.6506,-0.2401,1.196,9.711,2.9819,-5.4078,-3.0281,-4.031,9.1887,-1.2226,3.7754,-5.1624,2.3965,-0.1088,9.7642,-2.3427,1.7076,-0.999999,0,1698375511.4293,87
-0.3102,-2.7389,-0.1207,0.903,0.0661,-1.2716,-0.0393,1.2243,9.4769,2.9904,-6.1641,-3.6016,-4.2384,9.568,-1.3547,3.8252,-5.0767,2.5737,-0.1651,9.8301,-2.342,1.8622,-1,0,1698375511.4404,88
-0.3328,-2.5976,-0.1132,0.8554,0.1803,-0.8349,0.2461,1.1188,9.305,3.0152,-6.7797,-3.3185,-3.7588,9.907,-1.3713,3.8422,-4.9777,2.552,-0.2616,9.8638,-2.2768,1.8482,-1,0,1698375511.4512,88
-0.3543,-2.4214,-0.107,0.7817,0.24,-0.3969,0.5777,0.9401,9.2752,2.9214,-7.4326,-2.1663,-2.7325,10.163,-1.3596,3.8439,-4.8718,2.3127,-0.4039,9.8871,-2.1679,1.7533,-1,0,1698375511.4607,89
-0.3733,-2.2446,-0.101,0.7157,0.3281,-0.0268,0.9248,0.7235,9.2272,2.7524,-7.9746,-0.6476,-1.546,10.3096,-1.3644,3.7367,-4.7359,1.9308,-0.5946,9.898,-2.0894,1.6126,-1,0,1698375511.4708,90
-0.3905,-2.0983,-0.095,0.674,0.4972,0.2615,1.2591,0.4278,9.2671,2.5628,-8.0667,0.8099,-0.3756,10.3819,-1.3946,3.4487,-4.5366,1.6078,-0.764,9.9177,-2.0988,1.4369,-1,0,1698375511.481,91
-0.407,-1.937,-0.089,0.6734,0.6506,0.5382,1.5648,0.1348,9.4032,2.3493,-7.6636,2.0348,0.6784,10.3449,-1.4386,3.1395,-4.277,1.5682,-0.8708,9.9108,-2.0948,1.2888,-1,0,1698375511.4922,91
-0.4236,-1.7939,-0.0818,0.6771,1.0127,0.915,2.05,-0.0065,9.0727,1.9704,-6.2664,2.683,1.8497,10.0599,-1.4661,2.4553,-3.6193,1.7162,-1.1512,9.7402,-1.9891,1.0214,-1,0,1698375511.503,92
-0.4398,-1.6816,-0.074,0.6694,1.0962,1.0569,2.1902,0.0375,8.9801,1.8338,-5.6772,2.3827,1.9373,9.8379,-1.3891,2.2062,-3.2782,1.7777,-1.2381,9.6235,-1.9321,0.931,-0.999995,0,1698375511.5132,93
-0.4539,-1.5718,-0.0662,0.6902,1.1662,1.1535,2.2855,0.0518,8.9873,1.724,-4.9997,2.1555,1.8758,9.5936,-1.3657,2.0239,-2.9314,2.0087,-1.2638,9.5021,-1.8726,0.9172,-0.999955,0,1698375511.5232,94
-0.4665,-1.4763,-0.0572,0.7188,1.2231,1.2039,2.3305,0.0154,9.0949,1.6245,-4.1641,1.9713,1.7241,9.3688,-1.3589,1.92,-2.599,2.1318,-1.2497,9.3643,-1.7917,0.8984,-0.999205,0,1698375511.5349,95
-0.4783,-1.3774,-0.047,0.7432,1.2255,1.2549,2.3186,-0.0308,9.1187,1.5389,-3.3984,2.0388,1.3617,9.3088,-1.2719,1.8334,-2.3135,2.1449,-1.214,9.223,-1.7312,0.8676,-0.939289,0,1698375511.5456,95
-0.4888,-1.2393,-0.0363,0.7763,1.1976,1.0985,2.2531,0.0373,9.1527,1.423,-1.7017,1.8806,0.8313,9.1933,-1.1875,2.0728,-2.1079,2.1064,-1.142,9.0534,-1.6826,0.8861,-0.837444,0,1698375511.5567,96
-0.4972,-1.0952,-0.0256,0.8332,1.1273,0.9779,2.146,0.138,9.1817,1.3782,0.0013,0.8204,0.1314,9.0119,-1.1709,1.8724,-1.9798,1.9964,-1.0519,8.9081,-1.6529,0.8839,-0.804477,0,1698375511.5678,97
-0.5035,-0.9461,-0.0153,0.8668,1.0404,1.0972,1.9981,0.2398,9.1923,1.3781,-0.7807,0.6736,-0.27,8.9731,-1.3309,1.5755,-1.8488,1.8351,-0.9897,8.8064,-1.652,0.8587,-0.801263,0,1698375511.5787,98
-0.5071,-0.7938,-0.0056,0.8496,1.0026,1.2113,1.8397,0.3263,9.2766,1.3152,-1.3678,2.6533,0.002,8.9475,-1.4966,2.0285,-1.6873,1.6426,-0.9464,8.7434,-1.6783,0.8236,-0.634942,0,1698375511.5896,98
-0.5092,-0.6583,0.0037,0.8402,0.8992,1.3262,1.6681,0.3173,9.4688,1.187,-0.1185,5.229,0.4084,8.9094,-1.5103,2.236,-1.4844,1.4989,-0.8864,8.7133,-1.723,0.7731,-0.316145,0,1698375511.6002,99
-0.5102,-0.526,0.0127,0.8202,0.691,1.4428,1.4726,0.317,9.5815,1.0232,0.8212,6.76,0.6201,8.8673,-1.4922,2.0821,-1.2058,1.4266,-0.8006,8.6842,-1.7551,0.7368,-0.022313,0,1698375511.6118,0
-0.5101,-0.4073,0.0208,0.7873,0.4646,1.5427,1.2483,0.413,9.5688,0.927,0.9477,6.9368,0.5553,8.8151,-1.407,1.954,-0.8939,1.3175,-0.7484,8.6432,-1.7498,0.6912,0.205938,0,1698375511.6216,1
-0.5097,-0.3033,0.0279,0.7498,-0.0937,1.6928,0.7617,0.5461,9.3062,0.7978,1.2777,6.1402,0.2971,8.7387,-1.4324,2.0713,-0.3679,1.0049,-0.7094,8.6062,-1.7119,0.616,0.383228,0,1698375511.6338,2
-0.508,-0.1689,0.0349,0.6833,-0.4449,1.6952,0.4132,0.8045,9.201,0.8906,1.5937,5.3408,0.1893,8.7109,-1.4525,2.1159,-0.1459,0.9261,-0.6989,8.6245,-1.7075,0.5755,0.520935,0,1698375511.6449,2
-0.5023,0.0494,0.0414,0.6229,-0.762,1.6621,-0.0091,0.9603,9.1262,1.0093,1.7787,4.1429,0.0426,8.7104,-1.4985,2.1644,0.0639,0.9262,-0.6788,8.6685,-1.7046,0.5459,0.627893,0,1698375511.6558,3
-0.4913,0.3511,0.0473,0.59,-0.8251,1.6176,-0.4062,0.8592,8.7715,1.0106,1.9292,2.9227,-0.1114,8.7456,-1.5292,2.2365,0.2611,0.8999,-0.6572,8.7326,-1.7095,0.5336,0.710641,0,1698375511.6664,4
-0.4764,0.622,0.0539,0.5774,-0.6338,1.5737,-0.7223,0.5971,8.3003,1.1072,2.081,2.021,-0.214,8.774,-1.5544,2.307,0.4304,0.7713,-0.6499,8.7959,-1.732,0.5374,0.701325,0,1698375511.6786,5
-0.4572,0.8817,0.062,0.5947,-0.3796,1.5736,-0.9772,0.4253,8.0827,1.1821,2.1972,1.4561,-0.2511,8.7792,-1.5828,2.3577,0.5917,0.6262,-0.6467,8.8639,-1.7832,0.5634,0.487381,0,1698375511.6897,6
-0.4356,1.1436,0.0712,0.6279,-0.1769,1.4535,-1.1539,0.1724,8.0438,1.4227,2.2082,0.9858,-0.2739,8.7686,-1.5923,2.3688,0.763,0.5229,-0.6553,8.9346,-1.846,0.6094,0.171574,0,1698375511.7003,6
-0.4149,1.2984,0.0811,0.6767,0.1262,1.2826,-1.2392,-0.2598,7.9537,1.6842,1.9867,0.5515,-0.3377,8.7753,-1.5916,2.3763,0.9148,0.4273,-0.6714,9.0119,-1.9035,0.65,-0.089907,0,1698375511.7109,7
-0.3955,1.3704,0.0909,0.7568,0.4383,1.3705,-1.2875,-0.2261,8.0236,1.4688,1.7081,0.0096,-0.4639,8.7984,-1.5636,2.3122,1.0004,0.2627,-0.6924,9.1003,-1.9199,0.6869,-0.292564,0,1698375511.7213,8
-0.3782,1.4202,0.1003,0.7982,0.7284,1.5139,-1.2807,0.1218,8.3539,1.105,1.2855,-0.6951,-0.5977,8.842,-1.5402,2.3356,0.968,0.0522,-0.7266,9.2134,-1.8917,0.722,-0.448337,0,1698375511.7321,9
-0.3635,1.4249,0.1093,0.7683,0.9734,1.511,-1.2124,0.1355,8.8115,0.9035,0.8064,-1.5679,-0.7792,8.9903,-1.4454,2.4032,0.8115,-0.182,-0.7557,9.3763,-1.8487,0.7254,-0.569286,0,1698375511.7422,10
-0.3514,1.3602,0.1175,0.744,1.3129,1.2373,-1.093,-0.0492,9.7887,0.834,-1.1554,-3.538,-1.3945,9.4488,-1.301,2.5575,0.4628,-0.6077,-0.8132,9.8075,-1.7105,0.6712,-0.662854,0,1698375511.7531,10
-0.343,1.2062,0.1247,0.7178,1.2161,1.1581,-1.0069,-0.278,10.3905,0.6727,-3.0853,-4.44,-1.7595,9.7018,-1.2769,2.4326,0.3553,-0.8983,-0.8528,10.0372,-1.6174,0.6467,-0.723163,0,1698375511.7639,11
-0.3388,0.9731,0.1309,0.6728,1.2073,1.0677,-0.8821,-0.48,10.7304,0.4652,-4.5511,-5.1584,-1.9909,9.9599,-1.186,2.4259,0.2811,-1.2347,-0.8717,10.2746,-1.5153,0.6167,-0.742225,0,1698375511.7747,12
-0.3381,0.7531,0.1365,0.6325,1.2192,0.9096,-0.7392,-0.6414,10.8329,0.36,-4.442,-5.3185,-2.0642,10.2218,-1.0519,2.5476,0.2448,-1.4816,-0.8684,10.5015,-1.3909,0.5771,-0.747468,0,1698375511.7856,13
-0.3388,0.5834,0.1413,0.5842,1.191,0.815,-0.7756,-0.5744,10.904,0.1748,-4.025,-4.7714,-2.0452,10.4715,-0.9992,2.6294,0.1928,-1.6273,-0.8488,10.7259,-1.3079,0.5359,-0.780459,0,1698375511.7964,14
-0.3392,0.4407,0.1466,0.5656,1.1827,0.8105,-0.7092,-0.3197,11.0464,-0.0545,-3.4786,-3.8683,-1.9811,10.7063,-0.9562,2.6987,0.0535,-1.8581,-0.8251,10.9525,-1.2913,0.4841,-0.82854,0,1698375511.8094,14
-0.3394,0.3303,0.1527,0.5606,1.2325,0.8352,-0.3637,-0.0909,11.4213,-0.1538,-2.8855,-2.9146,-1.9406,10.928,-0.9412,2.6764,-0.0496,-2.2223,-0.8459,11.155,-1.2872,0.4381,-0.866809,0,1698375511.8198,15
-0.3383,0.2951,0.1573,0.508,1.3709,0.7878,-0.0084,-0.0931,12.1731,-0.1647,-2.2688,-2.2881,-1.9927,11.1501,-0.9146,2.6228,-0.0231,-2.6696,-0.9089,11.3447,-1.2685,0.4544,-0.896543,0,1698375511.8297,16
-0.334,0.3517,0.1588,0.4071,1.4315,0.6471,0.2982,0.0135,12.483,0.1361,-1.5462,-2.4022,-2.1687,11.4237,-0.8159,2.5223,0.2787,-3.0427,-1.0081,11.5577,-1.2321,0.4946,-0.919623,0,1698375511.8397,17
-0.3258,0.4926,0.1587,0.308,1.0431,0.7159,0.4597,0.6092,12.5446,0.481,-1.0019,-2.5437,-2.4664,11.7781,-0.6842,2.5634,0.6503,-3.2353,-1.0604,11.8186,-1.1934,0.5314,-0.937534,0,1698375511.8502,18
-0.3153,0.6014,0.1581,0.2192,0.6034,0.9568,0.6678,0.9615,12.6492,0.6911,-0.4965,-2.207,-2.8016,12.2103,-0.5947,2.787,0.8878,-3.4113,-0.9911,12.1541,-1.1008,0.5475,-0.951457,0,1698375511.8607,18
-0.3054,0.6333,0.1559,0.0916,0.803,0.8942,1.0553,0.6217,11.8954,1.2982,0.145,-2.0043,-3.1072,12.5682,-0.4856,2.9992,1.1924,-3.4773,-0.8129,12.4711,-0.9423,0.491,-0.962021,0,1698375511.8705,19
-0.2987,0.6048,0.1507,-0.0687,0.8677,0.8065,1.4602,0.3081,11.5738,1.7348,0.8562,-2.3965,-3.3556,12.7796,-0.3349,3.1474,1.5398,-3.3521,-0.6251,12.6355,-0.7317,0.4172,-0.968528,0,1698375511.8806,20
-0.2962,0.493,0.1427,-0.2907,0.8387,0.832,1.7986,0.153,11.7502,1.7366,1.62,-2.8477,-3.3568,12.8278,-0.1921,3.3203,1.6494,-3.2864,-0.5354,12.629,-0.4942,0.3893,-0.848708,0,1698375511.89,21
-0.2961,0.3856,0.1317,-0.5401,0.8929,0.9004,2.0205,0.0774,11.5452,1.7409,2.4314,-2.9451,-2.9632,12.6921,-0.0946,3.4856,1.5079,-3.2925,-0.5782,12.4762,-0.285,0.4232,-0.535452,0,1698375511.8991,22
-0.2943,0.4013,0.1182,-0.76,0.9316,0.9016,2.1255,-0.0299,11.8114,1.6593,3.2398,-2.9739,-2.2731,12.4407,-0.0614,3.4889,1.4371,-3.1277,-0.7342,12.2113,-0.1338,0.4631,-0.194357,0,1698375511.9081,22
-0.2886,0.5038,0.1021,-0.9665,0.9803,0.8667,2.1227,-0.0674,12.0222,1.6095,3.9571,-2.9093,-1.3954,12.1148,-0.1083,3.3784,1.5279,-2.8028,-0.9491,11.8158,-0.1158,0.4153,0.071849,0,1698375511.9201,23
-0.277,0.6202,0.0796,-1.256,0.6859,1.1259,1.9203,0.4595,11.6348,1.7644,4.5859,-2.6632,-0.4205,11.7315,-0.2297,3.1763,1.8345,-2.4737,-1.2183,11.2838,-0.201,0.3349,0.278965,0,1698375511.9289,24
-0.2628,0.8184,0.0546,-1.5649,0.3021,1.3954,1.5611,1.0863,11.0455,2.2284,4.9933,-2.4899,0.4944,11.1969,-0.4828,3.046,2.4484,-2.2335,-1.5774,10.6642,-0.3035,0.3181,0.439766,0,1698375511.9382,25
-0.2491,1.0178,0.0299,-1.8519,0.0389,1.6304,1.1688,1.3396,10.5619,2.7518,5.0439,-3.3105,1.1505,10.6048,-0.6459,2.6137,3.3267,-2.1125,-1.9594,10.036,-0.4475,0.3511,0.53956,0,1698375511.9483,26
-0.2353,1.1199,0.0029,-2.1384,-0.0113,1.9245,0.8453,1.2789,10.2646,2.9681,4.9912,-3.902,1.5885,10.1617,-0.6358,2.0991,4.2125,-2.0287,-2.1734,9.5104,-0.6556,0.4598,0.508198,0,1698375511.9586,26
-0.2225,1.1155,-0.0253,-2.4021,-0.0247,2.2015,0.6145,1.0968,10.0705,3.1318,4.9664,-2.8948,2.0804,9.8317,-0.7319,2.0634,4.8733,-1.8742,-2.0892,9.1764,-0.8501,0.6949,0.420176,0,1698375511.9678,27
-0.2115,1.0958,-0.0532,-2.6385,-0.2089,2.4345,0.4693,0.8546,10.0443,3.2627,5.1704,-1.4307,2.4915,9.5842,-0.7563,2.1242,5.3303,-1.5394,-1.6385,9.0624,-0.959,0.9308,0.341315,0,1698375511.9771,28
-0.2022,1.1049,-0.0805,-2.8362,-0.4739,2.5849,0.4827,0.3626,10.0036,3.2061,5.559,-0.5432,2.5551,9.4572,-0.5671,2.1238,5.5915,-1.0953,-0.9212,9.0871,-0.9486,1.1426,0.277799,0,1698375511.9866,29
-0.1935,1.1011,-0.1099,-3.0012,-0.5357,2.6122,0.5962,-0.2487,9.5981,3.1833,5.9025,-0.5586,2.2824,9.4283,-0.2009,2.232,5.4927,-0.6489,-0.0862,9.1481,-0.8492,1.3384,0.340383,0,1698375511.9963,30
-0.1848,1.0983,-0.1411,-3.0397,-0.7755,2.6538,0.7244,-0.7571,9.4646,3.0777,6.1685,-1.3256,1.6922,9.4587,0.2099,2.5181,5.0896,-0.3789,0.7464,9.2366,-0.7009,1.5006,0.479841,0,1698375512.0066,30
-0.1761,1.0841,-0.1715,-3.0706,-1.012,2.6027,0.8376,-1.3591,9.6491,2.8178,6.2456,-2.6039,0.8793,9.5388,0.4636,2.7965,4.5669,-0.2732,1.5312,9.39,-0.564,1.667,0.595783,0,1698375512.0168,31
-0.1672,1.0775,-0.2,-3.0833,-1.1462,2.4121,0.8514,-1.923,9.5507,2.5923,6.1044,-4.0451,0.0348,9.6483,0.5114,3.018,4.1464,-0.1553,2.2055,9.5742,-0.4804,1.7729,0.685963,0,1698375512.0268,32
-0.1586,1.0478,-0.2262,-3.006,-1.2249,2.178,0.6942,-2.169,9.4393,2.3542,5.8183,-5.2591,-0.6202,9.7684,0.5291,3.239,3.9433,-0.1429,2.5102,9.7164,-0.5419,1.7513,0.752461,0,1698375512.0377,33
-0.1498,0.9751,-0.2512,-2.9109,-1.102,1.7823,0.3651,-2.2476,9.2576,2.2364,5.5347,-5.8202,-0.8342,9.8429,0.5433,3.3984,3.5487,-0.1393,2.7461,9.818,-0.6552,1.6936,0.611526,0,1698375512.0481,34
-0.1408,0.9143,-0.2742,-2.7564,-0.6725,1.3002,-0.0644,-2.3819,9.0318,2.2476,5.4925,-5.5522,-0.5769,9.8503,0.506,3.4503,3.6282,-0.2225,2.752,9.9499,-0.6784,1.6049,0.306049,0,1698375512.058,34
-0.1323,0.8996,-0.293,-2.5324,-0.1974,0.8065,-0.5574,-2.5172,8.9363,2.16,5.5918,-4.6861,-0.0335,9.8873,0.5209,3.3853,4.3973,0.1585,2.3757,10.0852,-0.6805,1.4724,0.078826,0,1698375512.0673,35
-0.1242,0.9056,-0.3093,-2.302,0.0063,0.3522,-1.0545,-2.4903,8.9386,1.9968,5.6716,-3.4953,0.6305,9.9217,0.5471,3.2661,5.0509,1.0416,1.9974,10.1061,-0.5439,1.3308,-0.048909,0,1698375512.0774,36
-0.1158,0.9273,-0.3252,-2.1192,0.2719,-0.0994,-1.5199,-2.3389,8.9759,1.9233,5.8221,-2.1758,1.3755,9.8406,0.5255,3.1417,5.9838,1.6295,1.4496,10.0015,-0.2446,1.0577,-0.188797,0,1698375512.0873,37
-0.1072,0.9154,-0.3403,-1.9656,0.5438,-0.5423,-1.9077,-2.1524,8.9196,1.9504,6.1444,-1.081,2.0692,9.8058,0.5555,2.9588,6.6803,1.9856,0.9687,9.8789,-0.1502,0.8231,-0.369915,0,1698375512.0974,38
-0.0987,0.8746,-0.3549,-1.812,0.7397,-0.8905,-2.2073,-1.8595,8.7387,1.9847,6.4382,-0.2324,2.5134,9.8129,0.6214,2.8014,6.277,1.8557,0.5363,9.6051,-0.1855,0.6803,-0.510594,0,1698375512.1073,38
-0.0902,0.8633,-0.3691,-1.6644,0.8731,-0.9684,-2.4178,-1.5199,8.7498,2.0104,6.6298,0.7139,2.8193,9.7115,0.5942,2.7845,4.389,0.6402,0.3062,9.3432,-0.1316,0.496,-0.619864,0,1698375512.1173,39
-0.0823,0.848,-0.3828,-1.5599,0.9383,-1.1014,-2.5413,-1.3345,8.8835,2.0658,6.8127,1.9859,3.0816,9.5809,0.5206,2.8377,2.943,-1.9376,-0.0072,9.2077,0.0634,0.1939,-0.704737,0,1698375512.1282,40
-0.0742,0.8244,-0.3966,-1.5185,0.9242,-1.3921,-2.5912,-1.2207,9.0651,1.9018,6.8703,3.5209,3.2929,9.3785,0.4662,2.8702,1.369,-3.7208,-0.0154,9.0341,0.2937,0.3094,-0.77066,0,1698375512.138,41
-0.0663,0.8036,-0.4093,-1.4603,0.8196,-1.5267,-2.5592,-1.1858,9.3677,1.5589,6.8188,4.9629,3.5236,9.1958,0.463,2.7789,1.3617,-2.8288,0.3455,9.0264,0.3426,0.6589,-0.821859,1,1698375512.1475,42
-0.0593,0.802,-0.4209,-1.3851,0.7127,-1.6612,-2.4645,-1.3051,9.3663,1.4444,6.8206,6.2525,3.9158,9.0614,0.4377,2.7304,4.7962,-0.0286,0.2295,9.0448,0.3914,0.8408,-0.861627,1,1698375512.1576,42
-0.0523,0.8034,-0.4324,-1.3435,0.6058,-1.8022,-2.3228,-1.4026,9.1817,1.479,6.9873,7.0915,4.0781,8.9004,0.4253,2.6927,6.0902,1.5874,0.3891,8.9361,0.2451,0.9369,-0.892521,1,1698375512.1671,43
-0.0456,0.7888,-0.4426,-1.3113,0.3975,-1.8947,-2.1777,-1.458,9.2398,1.4347,7.0776,7.3835,3.7338,8.7806,0.4534,2.6362,4.9325,0.4889,0.7492,8.8477,0.0858,0.6556,-0.860153,1,1698375512.1766,44
-0.039,0.7703,-0.4516,-1.2443,0.1889,-1.9333,-2.0088,-1.5438,9.2566,1.2924,7.1264,7.4288,3.3045,8.7285,0.433,2.6458,3.6037,-1.2251,0.9317,8.8332,0.1598,0.356,-0.833936,1,1698375512.1875,45
-0.0318,0.7395,-0.4599,-1.1449,-0.0303,-1.9284,-1.8239,-1.6065,9.3197,1.0869,7.1379,7.0123,2.8815,8.7041,0.4214,2.6442,2.4089,-1.9386,1.1365,8.8969,0.2261,0.2878,-0.869937,1,1698375512.1985,46
-0.0245,0.7025,-0.4667,-1.0229,-0.2976,-1.9424,-1.6539,-1.5853,9.3649,0.9616,6.7241,5.8664,2.3766,8.6749,0.4412,2.6634,2.0449,-1.6175,1.2794,8.9677,0.3185,0.2174,-0.898973,1,1698375512.2079,46
-0.0179,0.6892,-0.4708,-0.8576,-0.5266,-1.9772,-1.4972,-1.4559,9.2485,0.9104,5.9835,4.1907,1.8344,8.683,0.4524,2.6613,2.3835,-1.0665,1.3955,9.0451,0.2644,-0.0132,-0.921529,1,1698375512.217,47
-0.0118,0.6812,-0.4727,-0.683,-0.6517,-2.0136,-1.3362,-1.334,9.1348,0.9068,5.1415,2.3898,1.2956,8.7112,0.4776,2.6567,2.5621,-0.722,1.4593,9.1023,0.213,-0.211,-0.939049,1,1698375512.2265,48
-0.0061,0.6764,-0.4734,-0.5505,-0.7956,-2.0154,-1.1796,-1.2157,9.0198,0.8898,4.2625,0.9091,0.8141,8.7623,0.4886,2.6516,2.2586,-0.7161,1.4304,9.1596,0.2223,-0.2847,-0.952658,1,1698375512.2365,49
-0.0002,0.6664,-0.4734,-0.4296,-0.9433,-1.999,-1.0478,-1.0651,9.0403,0.8079,3.4715,0.1749,0.4683,8.83,0.4772,2.6323,1.5745,-0.9824,1.3986,9.246,0.0889,-0.3692,-0.963228,0,1698375512.2462,50
0.0059,0.6538,-0.4731,-0.313,-1.0588,-1.9922,-0.9045,-0.9516,9.0744,0.7772,2.8691,0.0912,0.2857,8.8957,0.4512,2.5976,0.6367,-1.324,1.3961,9.314,0.0205,-0.4343,-0.971438,0,1698375512.2573,50
0.0117,0.6356,-0.472,-0.1882,-1.3462,-1.8676,-0.7378,-0.9043,9.2099,0.648,2.4063,0.3611,0.2453,8.9684,0.3959,2.5602,-0.015,-1.32,1.3276,9.3884,-0.0721,-0.4263,-0.977815,0,1698375512.267,51
0.0172,0.6246,-0.4687,-0.0201,-1.7638,-1.735,-0.5734,-0.8259,9.3713,0.4496,2.0707,0.8639,0.3093,9.0312,0.3271,2.5381,-0.3047,-0.9453,1.1117,9.4075,-0.1697,-0.4348,-0.982768,0,1698375512.2764,52
0.0225,0.6471,-0.4619,0.2034,-1.9159,-1.7402,-0.3664,-0.9194,9.0642,0.5726,1.8611,1.2911,0.3966,9.0365,0.2651,2.4982,-0.4923,-0.6364,0.8596,9.364,-0.13,-0.4452,-0.986616,0,1698375512.2867,53
0.0276,0.6404,-0.4511,0.4388,-1.931,-1.7162,-0.1051,-1.1145,8.6311,0.758,1.6728,1.4933,0.4354,8.9876,0.2416,2.4389,-0.6363,-0.3854,0.6391,9.3286,-0.0779,-0.4204,-0.989604,0,1698375512.2963,54
0.0325,0.6181,-0.4369,0.6949,-1.8567,-1.6796,0.1788,-1.2249,8.349,0.7937,1.5503,1.6999,0.4868,8.943,0.2465,2.3947,-0.7873,-0.1018,0.4457,9.2785,-0.0601,-0.3992,-0.991925,0,1698375512.3067,54
0.0381,0.6206,-0.42,1.0008,-1.5424,-1.6802,0.4488,-1.3732,7.9075,0.8458,1.5882,2.0069,0.5941,8.9127,0.2808,2.3799,-0.9515,0.0997,0.2486,9.2093,-0.0419,-0.3708,-0.993728,0,1698375512.3166,55
0.0449,0.6203,-0.4017,1.2483,-1.1415,-1.6679,0.6627,-1.425,7.6124,0.8438,1.6576,2.3058,0.7047,8.9043,0.3468,2.3852,-1.1549,0.2673,0.0827,9.1935,-0.0257,-0.3355,-0.995128,0,1698375512.3267,56
0.0525,0.6447,-0.3834,1.3971,-0.6555,-1.6702,0.8178,-1.4268,7.6178,0.8104,1.6511,2.4511,0.748,8.9456,0.3996,2.3934,-1.3248,0.343,-0.0325,9.2261,-0.0201,-0.3039,-0.996216,0,1698375512.3373,57
0.0614,0.7021,-0.365,1.5256,-0.1501,-1.6482,0.9085,-1.4779,7.8025,0.7216,1.525,2.3867,0.6725,9.0213,0.4342,2.4499,-1.5317,0.4622,-0.0777,9.318,-0.0237,-0.2401,-0.997061,0,1698375512.3472,58
0.0708,0.7306,-0.3481,1.561,0.2595,-1.5995,0.9149,-1.4924,8.2591,0.5808,1.1927,2.0256,0.4443,9.1122,0.472,2.5126,-1.7981,0.6111,-0.0515,9.4627,-0.0383,-0.1918,-0.997717,0,1698375512.3572,58
0.0798,0.7343,-0.3343,1.4881,0.5342,-1.5114,0.8586,-1.4142,8.8632,0.4845,0.7028,1.3822,0.1086,9.2333,0.4913,2.5367,-2.0153,0.685,0.015,9.6442,-0.0807,-0.1519,-0.998227,0,1698375512.3671,59
0.0883,0.7494,-0.3225,1.398,0.7186,-1.3791,0.7663,-1.2628,9.609,0.4362,0.1331,0.5884,-0.2528,9.3856,0.4854,2.5567,-2.1916,0.7075,0.0989,9.8627,-0.1574,-0.0934,-0.998623,0,1698375512.3768,60
0.0961,0.7582,-0.3122,1.2869,0.78,-1.2781,0.6477,-1.0188,10.2514,0.5272,-0.5131,-0.1433,-0.5922,9.5806,0.4605,2.6137,-2.2672,0.6158,0.182,10.0891,-0.2317,-0.0247,-0.99893,0,1698375512.3869,61
0.1028,0.7324,-0.3045,1.1518,0.6777,-1.1663,0.5446,-0.7494,10.7608,0.6254,-1.2834,-0.7814,-0.9275,9.8681,0.424,2.6387,-2.2646,0.4722,0.2475,10.3048,-0.3249,0.0027,-0.999169,0,1698375512.3965,62
0.108,0.6876,-0.2996,0.972,0.4278,-1.0062,0.4704,-0.5476,11.165,0.6084,-2.203,-1.2796,-1.262,10.173,0.3329,2.6191,-2.1791,0.3231,0.2889,10.475,-0.4444,-0.0238,-0.999355,0,1698375512.4067,62
0.112,0.6366,-0.2971,0.778,0.0598,-0.8044,0.4196,-0.4601,11.4277,0.4891,-3.0307,-1.4485,-1.5023,10.4405,0.1924,2.6379,-1.9865,0.0957,0.327,10.6339,-0.5671,-0.0618,-0.999499,0,1698375512.4173,63
0.116,0.5772,-0.296,0.6062,-0.2788,-0.5853,0.3742,-0.4546,11.5368,0.3665,-3.5321,-1.3146,-1.6199,10.7114,0.0773,2.6476,-1.8258,-0.1482,0.4112,10.821,-0.6822,-0.0531,-0.999611,0,1698375512.4277,64
