q,right_acc_x,right_acc_y,right_acc_z,right_ang_x,right_ang_y,right_ang_z,left_acc_x,left_acc_y,left_acc_z,left_ang_x,left_ang_y,left_ang_z,label
-0.3715,3.1291,2.3801,-2.3817,1.5041,3.587,9.9772,0.5363,2.7249,0.3763,2.0353,-1.8625,9.3042,0
-0.3731,3.1481,2.2919,-2.0605,1.2186,3.7409,9.9883,0.4219,2.4881,0.3876,2.0878,-1.803,9.2295,0
-0.3736,3.1481,2.2919,-2.0605,1.2186,3.7409,9.9883,0.4219,2.4881,0.3876,2.0878,-1.803,9.2295,0
-0.3736,3.1481,2.2919,-2.0605,1.2186,3.7409,9.9883,0.4219,2.4881,0.3876,2.0878,-1.803,9.2295,1
-0.3731,2.8992,1.8998,-1.7402,1.0693,3.8917,10.0451,0.3465,2.2244,0.2788,2.1083,-1.8096,9.2298,2
-0.3719,2.8992,1.8998,-1.7402,1.0693,3.8917,10.0451,0.3465,2.2244,0.2788,2.1083,-1.8096,9.2298,2
-0.3682,2.3778,1.4104,-1.3374,1.0816,3.9766,10.0483,0.34,1.9456,0.1441,2.0477,-1.865,9.2394,3
-0.3619,2.3778,1.4104,-1.3374,1.0816,3.9766,10.0483,0.34,1.9456,0.1441,2.0477,-1.865,9.2394,4
-0.3528,1.6879,0.9841,-0.7954,1.1932,3.943,9.9998,0.3751,1.6013,0.0628,1.869,-1.9474,9.2384,5
-0.3407,0.9719,0.6725,-0.1111,1.3005,3.7959,9.9345,0.406,1.1525,0.0682,1.5713,-2.0709,9.2725,5
-0.3272,0.9719,0.6725,-0.1111,1.3005,3.7959,9.9345,0.406,1.1525,0.0682,1.5713,-2.0709,9.2725,6
-0.3128,0.9719,0.6725,-0.1111,1.3005,3.7959,9.9345,0.406,1.1525,0.0682,1.5713,-2.0709,9.2725,7
-0.2988,0.3549,0.4476,0.6652,1.2892,3.6177,9.8847,0.4464,0.57,0.1724,1.1975,-2.2254,9.4093,8
-0.2875,-0.0578,0.211,1.4275,1.1266,3.5288,9.9124,0.5488,-0.15,0.3994,0.8521,-2.3409,9.6658,9
-0.2763,-0.0578,0.211,1.4275,1.1266,3.5288,9.9124,0.5488,-0.15,0.3994,0.8521,-2.3409,9.6658,9
-0.2711,-0.0578,0.211,1.4275,1.1266,3.5288,9.9124,0.5488,-0.15,0.3994,0.8521,-2.3409,9.6658,10
-0.2705,-0.2027,-0.0711,2.0582,0.9045,3.6009,10.0676,0.7357,-0.9065,0.759,0.7109,-2.3752,9.9934,11
-0.2722,-0.2027,-0.0711,2.0582,0.9045,3.6009,10.0676,0.7357,-0.9065,0.759,0.7109,-2.3752,9.9934,12
-0.2749,-0.0605,-0.2938,2.4655,0.7398,3.8099,10.3311,0.9642,-1.5089,1.2014,0.8756,-2.3391,10.3138,13
-0.2796,-0.0605,-0.2938,2.4655,0.7398,3.8099,10.3311,0.9642,-1.5089,1.2014,0.8756,-2.3391,10.3138,13
-0.2861,0.3451,-0.3846,2.7463,0.6951,4.0713,10.6551,1.1472,-1.8157,1.6287,1.2465,-2.2587,10.5524,14
-0.2914,0.3451,-0.3846,2.7463,0.6951,4.0713,10.6551,1.1472,-1.8157,1.6287,1.2465,-2.2587,10.5524,15
-0.296,0.8958,-0.4082,2.9876,0.788,4.304,10.996,1.2152,-1.8513,1.9587,1.6145,-2.1764,10.6829,16
-0.3004,0.8958,-0.4082,2.9876,0.788,4.304,10.996,1.2152,-1.8513,1.9587,1.6145,-2.1764,10.6829,16
-0.3039,1.4098,-0.4837,3.0503,0.9873,4.4829,11.3212,1.1185,-1.8091,2.1743,1.8128,-2.1227,10.7841,17
-0.3032,1.4098,-0.4837,3.0503,0.9873,4.4829,11.3212,1.1185,-1.8091,2.1743,1.8128,-2.1227,10.7841,18
-0.2988,1.7468,-0.6777,3.0125,1.2036,4.6629,11.6161,0.8429,-1.8789,2.3351,1.8002,-2.0729,10.9803,19
-0.2927,1.8204,-0.8641,3.1175,1.3473,4.9363,11.8775,0.4509,-2.0937,2.5364,1.6482,-1.9881,11.3,20
-0.2813,1.8204,-0.8641,3.1175,1.3473,4.9363,11.8775,0.4509,-2.0937,2.5364,1.6482,-1.9881,11.3,20
-0.2702,1.8204,-0.8641,3.1175,1.3473,4.9363,11.8775,0.4509,-2.0937,2.5364,1.6482,-1.9881,11.3,21
-0.2599,1.5986,-0.8843,3.4447,1.4193,5.3366,12.143,0.0611,-2.3586,2.8376,1.486,-1.8876,11.7187,22
-0.2509,1.1159,-0.8223,3.9333,1.5062,5.7975,12.4332,-0.199,-2.4833,3.2131,1.4358,-1.8094,12.2079,23
-0.2484,1.1159,-0.8223,3.9333,1.5062,5.7975,12.4332,-0.199,-2.4833,3.2131,1.4358,-1.8094,12.2079,23
-0.2494,0.4328,-0.5782,4.4783,1.6528,6.2282,12.654,-0.2133,-2.3098,3.5679,1.5101,-1.7161,12.6117,24
-0.2489,0.4328,-0.5782,4.4783,1.6528,6.2282,12.654,-0.2133,-2.3098,3.5679,1.5101,-1.7161,12.6117,25
-0.2485,-0.4257,0.2251,5.0504,1.8247,6.5602,12.5927,0.0744,-1.9212,3.8066,1.6062,-1.495,12.6371,26
-0.2446,-0.4257,0.2251,5.0504,1.8247,6.5602,12.5927,0.0744,-1.9212,3.8066,1.6062,-1.495,12.6371,27
-0.2378,-1.469,1.4019,5.6395,1.9403,6.7365,12.0884,0.5178,-1.5093,3.883,1.6266,-1.0834,12.1593,27
-0.2271,-1.469,1.4019,5.6395,1.9403,6.7365,12.0884,0.5178,-1.5093,3.883,1.6266,-1.0834,12.1593,28
-0.216,-2.7051,1.9689,6.1342,1.8502,6.7616,11.2407,0.8373,-1.2053,3.8182,1.5082,-0.5613,11.4054,29
-0.2036,-2.7051,1.9689,6.1342,1.8502,6.7616,11.2407,0.8373,-1.2053,3.8182,1.5082,-0.5613,11.4054,30
-0.1927,-3.9344,1.7245,6.4041,1.4791,6.7193,10.33,0.9124,-1.0715,3.6941,1.2287,-0.075,10.6932,30
-0.1812,-3.9344,1.7245,6.4041,1.4791,6.7193,10.33,0.9124,-1.0715,3.6941,1.2287,-0.075,10.6932,31
-0.1714,-3.9344,1.7245,6.4041,1.4791,6.7193,10.33,0.9124,-1.0715,3.6941,1.2287,-0.075,10.6932,32
-0.1616,-4.6959,1.5673,6.4176,0.8929,6.6498,9.6111,0.7824,-1.16,3.6356,0.8813,0.2666,10.221,33
-0.1525,-4.688,1.7002,6.1631,0.2313,6.5075,9.2659,0.4849,-1.4914,3.7591,0.6639,0.3823,10.0665,34
-0.1429,-4.688,1.7002,6.1631,0.2313,6.5075,9.2659,0.4849,-1.4914,3.7591,0.6639,0.3823,10.0665,34
-0.1341,-3.9311,1.8192,5.6282,-0.2517,6.2672,9.3208,0.1022,-1.8769,4.069,0.74,0.2303,10.1804,35
-0.1246,-3.9311,1.8192,5.6282,-0.2517,6.2672,9.3208,0.1022,-1.8769,4.069,0.74,0.2303,10.1804,36
-0.1153,-2.7113,1.821,4.8732,-0.3335,5.9572,9.5973,-0.2165,-2.0268,4.4335,1.1006,-0.0809,10.3811,37
-0.1043,-2.7113,1.821,4.8732,-0.3335,5.9572,9.5973,-0.2165,-2.0268,4.4335,1.1006,-0.0809,10.3811,38
-0.094,-1.5354,1.621,4.0199,-0.0425,5.6369,9.8577,-0.378,-1.7465,4.6862,1.6105,-0.3581,10.4398,38
-0.082,-1.5354,1.621,4.0199,-0.0425,5.6369,9.8577,-0.378,-1.7465,4.6862,1.6105,-0.3581,10.4398,39
-0.0732,-0.8432,1.3324,3.1998,0.4059,5.359,9.9135,-0.415,-0.9976,4.7293,2.1027,-0.5072,10.2531,40
-0.0622,-0.8432,1.3324,3.1998,0.4059,5.359,9.9135,-0.415,-0.9976,4.7293,2.1027,-0.5072,10.2531,41
-0.0525,-0.7171,1.1048,2.5029,0.786,5.1168,9.6945,-0.4098,0.0238,4.5352,2.4239,-0.5294,9.8882,41
-0.0427,-0.7171,1.1048,2.5029,0.786,5.1168,9.6945,-0.4098,0.0238,4.5352,2.4239,-0.5294,9.8882,42
-0.0337,-0.8798,0.9884,1.946,0.955,4.9078,9.2846,-0.4281,1.0036,4.105,2.54,-0.4397,9.4903,43
-0.0251,-0.8798,0.9884,1.946,0.955,4.9078,9.2846,-0.4281,1.0036,4.105,2.54,-0.4397,9.4903,44
-0.0174,-0.8798,0.9884,1.946,0.955,4.9078,9.2846,-0.4281,1.0036,4.105,2.54,-0.4397,9.4903,45
-0.0095,-0.9536,1.0425,1.4865,0.9293,4.7745,8.8562,-0.5295,1.6931,3.4994,2.5051,-0.2795,9.2034,45
-0.0034,-0.9536,1.0425,1.4865,0.9293,4.7745,8.8562,-0.5295,1.6931,3.4994,2.5051,-0.2795,9.2034,46
0.0025,-0.7499,1.1839,1.0578,0.8346,4.7374,8.587,-0.7321,1.9424,2.8534,2.3654,-0.1393,9.1179,47
0.0086,-0.7499,1.1839,1.0578,0.8346,4.7374,8.587,-0.7321,1.9424,2.8534,2.3654,-0.1393,9.1179,48
0.014,-0.312,1.2742,0.6318,0.7787,4.7917,8.584,-0.9805,1.7897,2.2888,2.1997,-0.1051,9.2702,48
0.019,-0.312,1.2742,0.6318,0.7787,4.7917,8.584,-0.9805,1.7897,2.2888,2.1997,-0.1051,9.2702,49
0.0241,0.2032,1.2763,0.238,0.8046,4.9121,8.8239,-1.1539,1.4577,1.8355,2.1193,-0.1938,9.6249,50
0.0295,0.2032,1.2763,0.238,0.8046,4.9121,8.8239,-1.1539,1.4577,1.8355,2.1193,-0.1938,9.6249,51
0.0363,0.6145,1.1966,-0.0996,0.8987,5.0562,9.1819,-1.1601,1.1598,1.4388,2.176,-0.3298,10.0323,52
0.0422,0.6145,1.1966,-0.0996,0.8987,5.0562,9.1819,-1.1601,1.1598,1.4388,2.176,-0.3298,10.0323,52
0.0482,0.8121,1.1289,-0.3791,1.0428,5.1919,9.515,-1.0245,0.9564,1.0339,2.3142,-0.4178,10.3117,53
0.0536,0.7951,1.1637,-0.5967,1.2069,5.284,9.7225,-0.8232,0.7891,0.5897,2.4518,-0.4321,10.3768,54
0.0601,0.7951,1.1637,-0.5967,1.2069,5.284,9.7225,-0.8232,0.7891,0.5897,2.4518,-0.4321,10.3768,55
0.0662,0.7951,1.1637,-0.5967,1.2069,5.284,9.7225,-0.8232,0.7891,0.5897,2.4518,-0.4321,10.3768,55
0.0724,0.6251,1.237,-0.7548,1.328,5.3281,9.7801,-0.6336,0.5908,0.0807,2.5392,-0.381,10.2714,56
0.0789,0.6251,1.237,-0.7548,1.328,5.3281,9.7801,-0.6336,0.5908,0.0807,2.5392,-0.381,10.2714,57
0.0871,0.3771,1.1897,-0.8818,1.3266,5.3836,9.7469,-0.5592,0.3318,-0.4948,2.5392,-0.2872,10.1121,58
0.0942,0.3771,1.1897,-0.8818,1.3266,5.3836,9.7469,-0.5592,0.3318,-0.4948,2.5392,-0.2872,10.1121,59
0.1012,0.088,0.8761,-1.0512,1.1564,5.4762,9.7093,-0.6462,0.0532,-1.0805,2.4548,-0.2146,10.0079,59
0.1061,0.088,0.8761,-1.0512,1.1564,5.4762,9.7093,-0.6462,0.0532,-1.0805,2.4548,-0.2146,10.0079,60
0.1086,0.088,0.8761,-1.0512,1.1564,5.4762,9.7093,-0.6462,0.0532,-1.0805,2.4548,-0.2146,10.0079,61
0.1091,-0.2275,0.2628,-1.3515,0.9213,5.5489,9.7365,-0.8427,-0.1377,-1.5911,2.3411,-0.214,10.0331,62
0.1091,-0.4595,-0.4679,-1.7917,0.8145,5.5547,9.8709,-1.0866,-0.1539,-1.9505,2.2341,-0.2961,10.1899,63
0.1091,-0.4595,-0.4679,-1.7917,0.8145,5.5547,9.8709,-1.0866,-0.1539,-1.9505,2.2341,-0.2961,10.1899,63
0.1096,-0.4884,-1.0314,-2.2599,0.9067,5.5189,10.0764,-1.3171,-0.0375,-2.1315,2.1241,-0.4509,10.4005,64
0.1108,-0.4884,-1.0314,-2.2599,0.9067,5.5189,10.0764,-1.3171,-0.0375,-2.1315,2.1241,-0.4509,10.4005,65
0.1129,-0.3706,-1.2805,-2.601,1.1056,5.4864,10.2666,-1.4779,0.1976,-2.1781,2.016,-0.6296,10.5871,66
0.1159,-0.2219,-1.2838,-2.7199,1.2592,5.4714,10.437,-1.5917,0.446,-2.1741,1.9316,-0.7835,10.7633,66
0.1195,-0.2219,-1.2838,-2.7199,1.2592,5.4714,10.437,-1.5917,0.446,-2.1741,1.9316,-0.7835,10.7633,67
0.1228,-0.1093,-1.2738,-2.6371,1.2662,5.4839,10.6839,-1.7321,0.3527,-2.189,1.8883,-0.9684,11.0319,68
0.1237,-0.1093,-1.2738,-2.6371,1.2662,5.4839,10.6839,-1.7321,0.3527,-2.189,1.8883,-0.9684,11.0319,69
0.1235,-0.1093,-1.2738,-2.6371,1.2662,5.4839,10.6839,-1.7321,0.3527,-2.189,1.8883,-0.9684,11.0319,70
0.1234,-0.0699,-1.4994,-2.4889,1.134,5.5158,11.0712,-1.8786,-0.1412,-2.2643,1.9032,-1.3041,11.4861,70
0.123,-0.0699,-1.4994,-2.4889,1.134,5.5158,11.0712,-1.8786,-0.1412,-2.2643,1.9032,-1.3041,11.4861,71
0.1209,-0.0692,-1.9962,-2.4123,0.9657,5.5269,11.5676,-1.8651,-0.7516,-2.4359,1.9898,-1.7916,12.1113,72
0.1179,-0.0692,-1.9962,-2.4123,0.9657,5.5269,11.5676,-1.8651,-0.7516,-2.4359,1.9898,-1.7916,12.1113,73
0.1111,-0.0692,-1.9962,-2.4123,0.9657,5.5269,11.5676,-1.8651,-0.7516,-2.4359,1.9898,-1.7916,12.1113,73
0.1013,-0.0584,-2.5569,-2.4415,0.886,5.4848,12.0725,-1.5264,-1.2218,-2.6849,2.1507,-2.2863,12.7219,74
0.0903,-0.0584,-2.5569,-2.4415,0.886,5.4848,12.0725,-1.5264,-1.2218,-2.6849,2.1507,-2.2863,12.7219,75
0.0746,-0.0742,-2.8495,-2.5154,0.945,5.3678,12.4043,-0.8638,-1.3815,-2.9465,2.3578,-2.6423,13.0068,76
0.0586,-0.2445,-2.6282,-2.5331,1.0474,5.1555,12.3631,0.0111,-1.1821,-3.2431,2.5423,-2.808,12.7328,77
0.0406,-0.2445,-2.6282,-2.5331,1.0474,5.1555,12.3631,0.0111,-1.1821,-3.2431,2.5423,-2.808,12.7328,77
0.0209,-0.6447,-1.9397,-2.4482,1.0232,4.8305,11.8844,0.9128,-0.71,-3.6539,2.5993,-2.7955,11.9162,78
0.0003,-0.6447,-1.9397,-2.4482,1.0232,4.8305,11.8844,0.9128,-0.71,-3.6539,2.5993,-2.7955,11.9162,79
-0.0207,-1.1766,-1.1438,-2.3258,0.7941,4.4119,11.1137,1.5539,-0.1354,-4.1688,2.4599,-2.6372,10.8189,80
-0.0419,-1.1766,-1.1438,-2.3258,0.7941,4.4119,11.1137,1.5539,-0.1354,-4.1688,2.4599,-2.6372,10.8189,80
-0.0626,-1.6368,-0.6908,-2.324,0.4132,3.961,10.333,1.7167,0.4599,-4.663,2.1476,-2.4246,9.8003,81
-0.0845,-1.6368,-0.6908,-2.324,0.4132,3.961,10.333,1.7167,0.4599,-4.663,2.1476,-2.4246,9.8003,82
-0.1051,-1.8351,-0.81,-2.5948,0.0472,3.5445,9.7987,1.4095,1.0699,-4.9581,1.7256,-2.2838,9.1227,83
-0.1306,-1.8351,-0.81,-2.5948,0.0472,3.5445,9.7987,1.4095,1.0699,-4.9581,1.7256,-2.2838,9.1227,84
-0.1609,-1.6314,-1.3124,-3.104,-0.085,3.2449,9.6364,0.8397,1.5899,-4.9112,1.2814,-2.2628,8.9007,84
-0.1805,-1.6314,-1.3124,-3.104,-0.085,3.2449,9.6364,0.8397,1.5899,-4.9112,1.2814,-2.2628,8.9007,85
-0.1992,-0.9587,-1.6109,-3.6204,0.1028,3.1315,9.8289,0.2912,1.8856,-4.4906,0.9303,-2.3106,9.118,86
-0.2156,-0.9587,-1.6109,-3.6204,0.1028,3.1315,9.8289,0.2912,1.8856,-4.4906,0.9303,-2.3106,9.118,87
-0.2302,0.0411,-1.3482,-3.9557,0.5177,3.199,10.2341,-0.0507,1.8282,-3.7739,0.7705,-2.3529,9.5874,88
-0.2444,0.0411,-1.3482,-3.9557,0.5177,3.199,10.2341,-0.0507,1.8282,-3.7739,0.7705,-2.3529,9.5874,88
-0.2571,1.0303,-0.6817,-4.0702,1.0214,3.373,10.6464,-0.1856,1.5385,-2.8976,0.8471,-2.3451,10.0391,89
-0.269,1.0303,-0.6817,-4.0702,1.0214,3.373,10.6464,-0.1856,1.5385,-2.8976,0.8471,-2.3451,10.0391,90
-0.2805,1.6952,0.1767,-3.9853,1.4789,3.5606,10.8822,-0.1756,1.4664,-2.0374,1.1183,-2.2825,10.2886,91
-0.2915,1.6952,0.1767,-3.9853,1.4789,3.5606,10.8822,-0.1756,1.4664,-2.0374,1.1183,-2.2825,10.2886,91
-0.3015,1.9063,1.0602,-3.7546,1.7482,3.6922,10.8466,-0.0497,1.7529,-1.365,1.4404,-2.1934,10.2808,92
-0.314,1.9063,1.0602,-3.7546,1.7482,3.6922,10.8466,-0.0497,1.7529,-1.365,1.4404,-2.1934,10.2808,93
-0.324,1.787,1.7936,-3.4652,1.7668,3.7227,10.5701,0.0154,2.1868,-0.9536,1.655,-2.1105,10.0349,94
-0.3317,1.787,1.7936,-3.4652,1.7668,3.7227,10.5701,0.0154,2.1868,-0.9536,1.655,-2.1105,10.0349,95
-0.3406,1.6264,2.302,-3.2018,1.5789,3.6607,10.175,-0.0641,2.5912,-0.7486,1.7102,-2.0435,9.6581,95
-0.3474,1.6136,2.5856,-3.0192,1.2689,3.5641,9.8,-0.0547,2.8445,-0.6387,1.6501,-1.9823,9.3181,96
-0.3562,1.6136,2.5856,-3.0192,1.2689,3.5641,9.8,-0.0547,2.8445,-0.6387,1.6501,-1.9823,9.3181,97
-0.3616,1.6136,2.5856,-3.0192,1.2689,3.5641,9.8,-0.0547,2.8445,-0.6387,1.6501,-1.9823,9.3181,98
-0.3655,1.725,2.6478,-2.9017,0.971,3.4897,9.5549,0.0743,2.8877,-0.5433,1.5689,-1.9327,9.114,98
-0.3674,1.8797,2.486,-2.7676,0.7774,3.481,9.4952,0.1377,2.7492,-0.4517,1.538,-1.9321,9.0606,99
-0.3679,1.8797,2.486,-2.7676,0.7774,3.481,9.4952,0.1377,2.7492,-0.4517,1.538,-1.9321,9.0606,0
-0.3677,2.0142,2.1071,-2.5686,0.6722,3.5275,9.6033,0.0718,2.5071,-0.3828,1.5363,-1.9841,9.1287,1
-0.3673,2.0142,2.1071,-2.5686,0.6722,3.5275,9.6033,0.0718,2.5071,-0.3828,1.5363,-1.9841,9.1287,2
-0.3665,2.0407,1.5712,-2.3043,0.6438,3.5894,9.8055,-0.0631,2.2386,-0.328,1.5168,-2.0542,9.2555,2
-0.3661,2.0407,1.5712,-2.3043,0.6438,3.5894,9.8055,-0.0631,2.2386,-0.328,1.5168,-2.0542,9.2555,3
-0.3648,2.0407,1.5712,-2.3043,0.6438,3.5894,9.8055,-0.0631,2.2386,-0.328,1.5168,-2.0542,9.2555,4
-0.3596,1.8873,0.9891,-1.9624,0.6907,3.6352,10.0045,-0.1458,1.9803,-0.2572,1.4604,-2.1333,9.3614,5
-0.3525,1.5532,0.4718,-1.5179,0.7804,3.6096,10.1052,-0.1028,1.7036,-0.1531,1.3791,-2.2284,9.3979,5
-0.3432,1.5532,0.4718,-1.5179,0.7804,3.6096,10.1052,-0.1028,1.7036,-0.1531,1.3791,-2.2284,9.3979,6
-0.3325,1.0951,0.0694,-0.9626,0.8803,3.5033,10.0765,0.0366,1.3689,-0.019,1.3027,-2.3345,9.4001,7
-0.3205,1.0951,0.0694,-0.9626,0.8803,3.5033,10.0765,0.0366,1.3689,-0.019,1.3027,-2.3345,9.4001,8
-0.3025,0.6157,-0.2425,-0.3358,0.9625,3.387,9.9754,0.1947,0.9826,0.1365,1.2323,-2.4246,9.4595,9
-0.2914,0.6157,-0.2425,-0.3358,0.9625,3.387,9.9754,0.1947,0.9826,0.1365,1.2323,-2.4246,9.4595,9
-0.283,0.2559,-0.4956,0.2817,1.0014,3.3277,9.8847,0.3297,0.5505,0.3198,1.1535,-2.4746,9.6435,10
-0.2792,0.2559,-0.4956,0.2817,1.0014,3.3277,9.8847,0.3297,0.5505,0.3198,1.1535,-2.4746,9.6435,11
-0.2797,0.1393,-0.667,0.8044,1.0034,3.3673,9.8957,0.4419,0.0539,0.5504,1.1,-2.4941,9.9468,12
-0.2814,0.1393,-0.667,0.8044,1.0034,3.3673,9.8957,0.4419,0.0539,0.5504,1.1,-2.4941,9.9468,12
-0.2838,0.3337,-0.6951,1.1872,1.0016,3.5164,10.0861,0.5494,-0.4728,0.8219,1.1461,-2.5116,10.29,13
-0.2868,0.3337,-0.6951,1.1872,1.0016,3.5164,10.0861,0.5494,-0.4728,0.8219,1.1461,-2.5116,10.29,14
-0.2894,0.7663,-0.6235,1.433,1.0194,3.7335,10.4324,0.6791,-0.9192,1.0735,1.313,-2.5442,10.5717,15
-0.2911,0.7663,-0.6235,1.433,1.0194,3.7335,10.4324,0.6791,-0.9192,1.0735,1.313,-2.5442,10.5717,16
-0.2915,1.2217,-0.6042,1.5715,1.0756,3.9423,10.8125,0.8276,-1.2121,1.2377,1.5076,-2.5739,10.7265,16
-0.291,1.2217,-0.6042,1.5715,1.0756,3.9423,10.8125,0.8276,-1.2121,1.2377,1.5076,-2.5739,10.7265,17
-0.2896,1.5415,-0.7316,1.6885,1.1725,4.103,11.1354,0.9151,-1.411,1.3246,1.5937,-2.5647,10.8026,18
-0.2886,1.5415,-0.7316,1.6885,1.1725,4.103,11.1354,0.9151,-1.411,1.3246,1.5937,-2.5647,10.8026,19
-0.2852,1.7169,-0.9595,1.9181,1.2594,4.2792,11.4319,0.8394,-1.6378,1.4375,1.5049,-2.5085,10.9559,19
-0.2799,1.7169,-0.9595,1.9181,1.2594,4.2792,11.4319,0.8394,-1.6378,1.4375,1.5049,-2.5085,10.9559,20
-0.2721,1.7679,-1.14,2.3438,1.2864,4.5801,11.7706,0.603,-1.9381,1.6748,1.301,-2.4151,11.2877,21
-0.2644,1.7679,-1.14,2.3438,1.2864,4.5801,11.7706,0.603,-1.9381,1.6748,1.301,-2.4151,11.2877,22
-0.2589,1.7679,-1.14,2.3438,1.2864,4.5801,11.7706,0.603,-1.9381,1.6748,1.301,-2.4151,11.2877,22
-0.2563,1.6189,-1.2059,2.923,1.2558,5.0592,12.2079,0.2951,-2.1888,2.036,1.1552,-2.3055,11.8205,23
-0.2591,1.1886,-1.1887,3.4937,1.2104,5.6516,12.7673,0.0165,-2.1602,2.4604,1.1921,-2.2313,12.497,24
-0.2633,1.1886,-1.1887,3.4937,1.2104,5.6516,12.7673,0.0165,-2.1602,2.4604,1.1921,-2.2313,12.497,25
-0.2673,1.1886,-1.1887,3.4937,1.2104,5.6516,12.7673,0.0165,-2.1602,2.4604,1.1921,-2.2313,12.497,26
-0.2681,0.5163,-1.0434,3.9111,1.259,6.1867,13.2952,-0.0466,-1.7079,2.8485,1.3828,-2.1657,13.0328,26
-0.2642,-0.3609,-0.5936,4.1897,1.4678,6.4909,13.4184,0.2753,-0.9356,3.0602,1.5808,-1.9819,12.9896,27
-0.2577,-0.3609,-0.5936,4.1897,1.4678,6.4909,13.4184,0.2753,-0.9356,3.0602,1.5808,-1.9819,12.9896,28
-0.2482,-1.437,0.3364,4.4634,1.7028,6.4882,12.8141,0.8579,-0.154,3.0349,1.5898,-1.624,12.2034,29
-0.2342,-1.437,0.3364,4.4634,1.7028,6.4882,12.8141,0.8579,-0.154,3.0349,1.5898,-1.624,12.2034,29
-0.2196,-1.437,0.3364,4.4634,1.7028,6.4882,12.8141,0.8579,-0.154,3.0349,1.5898,-1.624,12.2034,30
-0.2043,-2.5589,1.6678,4.8277,1.7394,6.24,11.5761,1.3722,0.2754,2.8712,1.3148,-1.1291,10.9949,31
-0.1921,-3.5786,2.7156,5.2123,1.4319,5.8952,10.1479,1.6054,0.1581,2.7522,0.817,-0.5873,9.8478,32
-0.1792,-3.5786,2.7156,5.2123,1.4319,5.8952,10.1479,1.6054,0.1581,2.7522,0.817,-0.5873,9.8478,33
-0.1699,-3.5786,2.7156,5.2123,1.4319,5.8952,10.1479,1.6054,0.1581,2.7522,0.817,-0.5873,9.8478,33
-0.1637,-4.3336,2.9197,5.4677,0.7902,5.6113,8.9652,1.5024,-0.3714,2.8192,0.2264,-0.122,9.094,34
-0.1608,-4.4666,2.6133,5.4859,0.0108,5.469,8.3245,1.0661,-1.056,3.1349,-0.2331,0.1568,8.8835,35
-0.1577,-4.4666,2.6133,5.4859,0.0108,5.469,8.3245,1.0661,-1.056,3.1349,-0.2331,0.1568,8.8835,36
-0.1533,-3.8492,2.1707,5.1773,-0.6175,5.4382,8.3214,0.4492,-1.6105,3.6385,-0.3042,0.1808,9.1844,36
-0.1464,-3.8492,2.1707,5.1773,-0.6175,5.4382,8.3214,0.4492,-1.6105,3.6385,-0.3042,0.1808,9.1844,37
-0.1399,-2.7195,1.766,4.5339,-0.891,5.4298,8.7607,-0.0865,-1.7625,4.1534,0.0526,-0.0067,9.7503,38
-0.1305,-2.7195,1.766,4.5339,-0.891,5.4298,8.7607,-0.0865,-1.7625,4.1534,0.0526,-0.0067,9.7503,39
-0.122,-1.4075,1.5238,3.6684,-0.7841,5.3797,9.3198,-0.3897,-1.385,4.519,0.6706,-0.2703,10.2695,40
-0.113,-1.4075,1.5238,3.6684,-0.7841,5.3797,9.3198,-0.3897,-1.385,4.519,0.6706,-0.2703,10.2695,40
-0.1043,-0.2905,1.382,2.7429,-0.4242,5.3102,9.7454,-0.4223,-0.5421,4.6265,1.3274,-0.4841,10.5396,41
-0.0944,-0.2905,1.382,2.7429,-0.4242,5.3102,9.7454,-0.4223,-0.5421,4.6265,1.3274,-0.4841,10.5396,42
-0.0859,-0.2905,1.382,2.7429,-0.4242,5.3102,9.7454,-0.4223,-0.5421,4.6265,1.3274,-0.4841,10.5396,43
-0.0775,0.5061,1.3643,1.9368,-0.0311,5.2582,9.8847,-0.2403,0.426,4.3838,1.8134,-0.5721,10.4971,43
-0.0658,0.5061,1.3643,1.9368,-0.0311,5.2582,9.8847,-0.2403,0.426,4.3838,1.8134,-0.5721,10.4971,44
-0.0569,1.081,1.4406,1.3048,0.2025,5.193,9.7221,-0.0125,1.1168,3.7669,2.0656,-0.5297,10.2193,45
-0.0462,1.081,1.4406,1.3048,0.2025,5.193,9.7221,-0.0125,1.1168,3.7669,2.0656,-0.5297,10.2193,46
-0.0376,1.081,1.4406,1.3048,0.2025,5.193,9.7221,-0.0125,1.1168,3.7669,2.0656,-0.5297,10.2193,47
-0.0299,1.4232,1.6119,0.7524,0.2788,5.1001,9.3878,0.098,1.3511,2.9014,2.1403,-0.4113,9.9052,47
-0.0217,1.4232,1.6119,0.7524,0.2788,5.1001,9.3878,0.098,1.3511,2.9014,2.1403,-0.4113,9.9052,48
-0.0145,1.6418,1.9467,0.2363,0.3253,5.0396,9.0924,0.0633,1.2019,1.9939,2.1044,-0.2928,9.7558,49
-0.0078,1.6418,1.9467,0.2363,0.3253,5.0396,9.0924,0.0633,1.2019,1.9939,2.1044,-0.2928,9.7558,50
-0.0014,1.8304,2.1535,-0.2276,0.4075,5.0594,8.9839,-0.0363,0.9043,1.2021,2.0531,-0.2291,9.8186,50
0.004,1.8304,2.1535,-0.2276,0.4075,5.0594,8.9839,-0.0363,0.9043,1.2021,2.0531,-0.2291,9.8186,51
0.0099,1.8963,2.1122,-0.5977,0.5611,5.1504,9.0599,-0.1179,0.6731,0.5826,2.051,-0.2124,9.9856,52
0.016,1.8963,2.1122,-0.5977,0.5611,5.1504,9.0599,-0.1179,0.6731,0.5826,2.051,-0.2124,9.9856,53
0.023,1.7873,1.9991,-0.8309,0.7764,5.2813,9.24,-0.1494,0.5832,0.1155,2.0802,-0.1955,10.1194,53
0.0302,1.7873,1.9991,-0.8309,0.7764,5.2813,9.24,-0.1494,0.5832,0.1155,2.0802,-0.1955,10.1194,54
0.037,1.5526,1.8494,-0.9539,0.9737,5.4175,9.441,-0.1384,0.5842,-0.2513,2.1051,-0.153,10.1567,55
0.0443,1.5526,1.8494,-0.9539,0.9737,5.4175,9.441,-0.1384,0.5842,-0.2513,2.1051,-0.153,10.1567,56
0.0514,1.3082,1.7625,-1.0182,1.095,5.5475,9.5963,-0.1158,0.5796,-0.573,2.1069,-0.09,10.1159,57
0.058,1.3082,1.7625,-1.0182,1.095,5.5475,9.5963,-0.1158,0.5796,-0.573,2.1069,-0.09,10.1159,57
0.0646,1.0923,1.744,-1.0596,1.1271,5.6825,9.6847,-0.145,0.5271,-0.8804,2.0764,-0.0117,10.0494,58
0.0721,1.0923,1.744,-1.0596,1.1271,5.6825,9.6847,-0.145,0.5271,-0.8804,2.0764,-0.0117,10.0494,59
0.0777,0.8491,1.6007,-1.1035,1.0677,5.812,9.7368,-0.2825,0.4587,-1.1788,1.9874,0.063,9.9998,60
0.0834,0.8491,1.6007,-1.1035,1.0677,5.812,9.7368,-0.2825,0.4587,-1.1788,1.9874,0.063,9.9998,60
0.0884,0.5227,1.2041,-1.1762,0.9055,5.9167,9.7861,-0.5363,0.4017,-1.4475,1.8057,0.0975,10.0112,61
0.0925,0.5227,1.2041,-1.1762,0.9055,5.9167,9.7861,-0.5363,0.4017,-1.4475,1.8057,0.0975,10.0112,62
0.0955,0.5227,1.2041,-1.1762,0.9055,5.9167,9.7861,-0.5363,0.4017,-1.4475,1.8057,0.0975,10.0112,63
0.0981,0.1142,0.5844,-1.2891,0.6682,6.0043,9.8654,-0.8658,0.3493,-1.6587,1.5586,0.076,10.1216,64
0.0997,-0.3149,-0.108,-1.4159,0.4449,6.0851,10.0059,-1.1974,0.2337,-1.8016,1.3256,-0.0058,10.3113,64
0.1005,-0.3149,-0.108,-1.4159,0.4449,6.0851,10.0059,-1.1974,0.2337,-1.8016,1.3256,-0.0058,10.3113,65
0.1013,-0.3149,-0.108,-1.4159,0.4449,6.0851,10.0059,-1.1974,0.2337,-1.8016,1.3256,-0.0058,10.3113,66
0.1026,-0.7165,-0.7512,-1.5199,0.2957,6.1509,10.1998,-1.4812,-0.0535,-1.8973,1.1745,-0.1456,10.5526,67
0.1041,-0.7165,-0.7512,-1.5199,0.2957,6.1509,10.1998,-1.4812,-0.0535,-1.8973,1.1745,-0.1456,10.5526,67
0.106,-1.0648,-1.3617,-1.5792,0.1742,6.1899,10.4596,-1.7453,-0.5276,-1.9879,1.1329,-0.3456,10.8842,68
0.1077,-1.0648,-1.3617,-1.5792,0.1742,6.1899,10.4596,-1.7453,-0.5276,-1.9879,1.1329,-0.3456,10.8842,69
0.1083,-1.3264,-2.0417,-1.634,0.0101,6.1999,10.8284,-2.0294,-1.0802,-2.1018,1.2166,-0.6615,11.3499,70
0.108,-1.3264,-2.0417,-1.634,0.0101,6.1999,10.8284,-2.0294,-1.0802,-2.1018,1.2166,-0.6615,11.3499,71
0.1075,-1.4704,-2.7867,-1.7745,-0.1374,6.1561,11.2855,-2.2662,-1.5305,-2.2771,1.41,-1.1325,11.9098,71
0.107,-1.4704,-2.7867,-1.7745,-0.1374,6.1561,11.2855,-2.2662,-1.5305,-2.2771,1.41,-1.1325,11.9098,72
0.1042,-1.4698,-3.4348,-2.0063,-0.1348,6.0156,11.7579,-2.3002,-1.8207,-2.5364,1.6088,-1.6808,12.4517,73
0.0994,-1.3433,-3.9937,-2.2369,0.0433,5.7825,12.1541,-2.0399,-2.0334,-2.8156,1.7548,-2.1742,12.8457,74
0.0913,-1.3433,-3.9937,-2.2369,0.0433,5.7825,12.1541,-2.0399,-2.0334,-2.8156,1.7548,-2.1742,12.8457,74
0.0794,-1.1602,-4.3598,-2.3918,0.2963,5.509,12.3503,-1.5213,-2.1269,-3.0379,1.8973,-2.532,12.9577,75
0.0657,-1.1602,-4.3598,-2.3918,0.2963,5.509,12.3503,-1.5213,-2.1269,-3.0379,1.8973,-2.532,12.9577,76
0.0501,-1.1602,-4.3598,-2.3918,0.2963,5.509,12.3503,-1.5213,-2.1269,-3.0379,1.8973,-2.532,12.9577,77
0.0326,-1.0337,-4.1279,-2.4512,0.5048,5.2051,12.2099,-0.7941,-1.9884,-3.2236,2.0486,-2.7324,12.6441,78
0.0139,-1.0337,-4.1279,-2.4512,0.5048,5.2051,12.2099,-0.7941,-1.9884,-3.2236,2.0486,-2.7324,12.6441,78
-0.0095,-1.0712,-3.3012,-2.4004,0.6144,4.8155,11.6774,0.0568,-1.6648,-3.4502,2.1403,-2.7657,11.862,79
-0.0315,-1.0712,-3.3012,-2.4004,0.6144,4.8155,11.6774,0.0568,-1.6648,-3.4502,2.1403,-2.7657,11.862,80
-0.0563,-1.2306,-2.2266,-2.2154,0.6062,4.3269,10.8936,0.7699,-1.297,-3.7381,2.1052,-2.6565,10.7977,81
-0.0783,-1.2306,-2.2266,-2.2154,0.6062,4.3269,10.8936,0.7699,-1.297,-3.7381,2.1052,-2.6565,10.7977,81
-0.0993,-1.3691,-1.317,-1.9734,0.4027,3.8203,10.1174,1.0772,-0.8897,-4.0272,1.9157,-2.5085,9.8011,82
-0.1209,-1.3691,-1.317,-1.9734,0.4027,3.8203,10.1174,1.0772,-0.8897,-4.0272,1.9157,-2.5085,9.8011,83
-0.1427,-1.4012,-0.9999,-1.8819,-0.0205,3.4062,9.554,0.9439,-0.3649,-4.2578,1.5799,-2.4276,9.1497,84
-0.1627,-1.4012,-0.9999,-1.8819,-0.0205,3.4062,9.554,0.9439,-0.3649,-4.2578,1.5799,-2.4276,9.1497,84
-0.1881,-1.2568,-1.2993,-2.0862,-0.4518,3.1532,9.3542,0.5191,0.2125,-4.3531,1.1701,-2.4289,8.9579,85
-0.2082,-1.2568,-1.2993,-2.0862,-0.4518,3.1532,9.3542,0.5191,0.2125,-4.3531,1.1701,-2.4289,8.9579,86
-0.228,-0.859,-1.8657,-2.5398,-0.6172,3.0875,9.5756,0.0474,0.6554,-4.183,0.822,-2.4682,9.2207,87
-0.2435,-0.859,-1.8657,-2.5398,-0.6172,3.0875,9.5756,0.0474,0.6554,-4.183,0.822,-2.4682,9.2207,88
-0.2593,-0.859,-1.8657,-2.5398,-0.6172,3.0875,9.5756,0.0474,0.6554,-4.183,0.822,-2.4682,9.2207,88
-0.2737,-0.2426,-2.255,-3.0619,-0.418,3.2098,10.0727,-0.2392,0.8696,-3.6888,0.6785,-2.4879,9.734,89
-0.2884,-0.2426,-2.255,-3.0619,-0.418,3.2098,10.0727,-0.2392,0.8696,-3.6888,0.6785,-2.4879,9.734,90
-0.299,0.4692,-2.1263,-3.4643,0.0915,3.4339,10.5575,-0.2649,0.9945,-2.9643,0.8133,-2.4642,10.1876,91
-0.3091,1.2879,-1.4854,-3.6536,0.7374,3.6082,10.7798,-0.07,1.1951,-2.1854,1.1452,-2.4183,10.3865,91
-0.3208,1.2879,-1.4854,-3.6536,0.7374,3.6082,10.7798,-0.07,1.1951,-2.1854,1.1452,-2.4183,10.3865,92
-0.3295,2.1291,-0.5732,-3.626,1.2758,3.6741,10.6824,0.266,1.4561,-1.5262,1.4911,-2.3559,10.279,93
-0.34,2.1291,-0.5732,-3.626,1.2758,3.6741,10.6824,0.266,1.4561,-1.5262,1.4911,-2.3559,10.279,94
-0.3488,2.5955,0.3105,-3.4181,1.5477,3.667,10.3783,0.5957,1.7196,-1.087,1.7314,-2.2562,9.9382,95
-0.357,2.5955,0.3105,-3.4181,1.5477,3.667,10.3783,0.5957,1.7196,-1.087,1.7314,-2.2562,9.9382,95
-0.3639,2.5491,0.9129,-3.0975,1.5701,3.6156,10.0174,0.7845,1.9434,-0.8479,1.8532,-2.1163,9.5292,96
-0.3695,2.2192,1.1627,-2.7356,1.4643,3.5432,9.6977,0.8127,2.0925,-0.7477,1.909,-1.9816,9.1971,97
-0.3756,2.2192,1.1627,-2.7356,1.4643,3.5432,9.6977,0.8127,2.0925,-0.7477,1.909,-1.9816,9.1971,98
-0.38,2.2192,1.1627,-2.7356,1.4643,3.5432,9.6977,0.8127,2.0925,-0.7477,1.909,-1.9816,9.1971,98
-0.383,1.8498,1.1474,-2.3678,1.342,3.4734,9.4858,0.7206,2.153,-0.7488,1.9308,-1.9003,9.0101,99
-0.3835,1.6005,1.0027,-1.9953,1.2606,3.4379,9.4382,0.5733,2.0952,-0.8054,1.8961,-1.8797,8.9888,0
-0.383,1.6005,1.0027,-1.9953,1.2606,3.4379,9.4382,0.5733,2.0952,-0.8054,1.8961,-1.8797,8.9888,1
-0.3829,1.4813,0.8023,-1.6035,1.2324,3.459,9.5313,0.4575,1.8884,-0.8464,1.8029,-1.9018,9.1039,2
-0.3826,1.4813,0.8023,-1.6035,1.2324,3.459,9.5313,0.4575,1.8884,-0.8464,1.8029,-1.9018,9.1039,2
-0.3813,1.4063,0.596,-1.1802,1.2511,3.5038,9.6825,0.443,1.5481,-0.7958,1.6863,-1.9509,9.2676,3
-0.3727,1.4063,0.596,-1.1802,1.2511,3.5038,9.6825,0.443,1.5481,-0.7958,1.6863,-1.9509,9.2676,4
-0.3614,1.3054,0.4584,-0.7175,1.2899,3.5294,9.831,0.5437,1.1333,-0.6191,1.5745,-2.0261,9.3971,5
-0.3482,1.3054,0.4584,-0.7175,1.2899,3.5294,9.831,0.5437,1.1333,-0.6191,1.5745,-2.0261,9.3971,5
-0.3344,1.1392,0.3872,-0.211,1.3013,3.5149,9.9577,0.687,0.69,-0.3504,1.4652,-2.1151,9.4639,6
-0.3173,1.1392,0.3872,-0.211,1.3013,3.5149,9.9577,0.687,0.69,-0.3504,1.4652,-2.1151,9.4639,7
-0.3025,0.9193,0.2814,0.3103,1.2409,3.4824,10.0706,0.783,0.2412,-0.054,1.3584,-2.194,9.5182,8
-0.2891,0.9193,0.2814,0.3103,1.2409,3.4824,10.0706,0.783,0.2412,-0.054,1.3584,-2.194,9.5182,9
-0.2786,0.7231,0.0559,0.7856,1.0954,3.4926,10.1967,0.8108,-0.1917,0.2398,1.2898,-2.256,9.6576,9
-0.2734,0.7231,0.0559,0.7856,1.0954,3.4926,10.1967,0.8108,-0.1917,0.2398,1.2898,-2.256,9.6576,10
-0.2737,0.6273,-0.2678,1.1518,0.9167,3.5846,10.389,0.7974,-0.5846,0.5439,1.3058,-2.3043,9.9223,11
-0.2775,0.6273,-0.2678,1.1518,0.9167,3.5846,10.389,0.7974,-0.5846,0.5439,1.3058,-2.3043,9.9223,12
-0.2826,0.6273,-0.2678,1.1518,0.9167,3.5846,10.389,0.7974,-0.5846,0.5439,1.3058,-2.3043,9.9223,13
-0.2892,0.6668,-0.5618,1.3617,0.7968,3.7594,10.6685,0.7901,-0.8757,0.8484,1.4402,-2.3455,10.2587,13
-0.2965,0.8183,-0.7342,1.4269,0.7698,3.9633,10.9854,0.8238,-0.9699,1.0813,1.6607,-2.382,10.5701,14
-0.304,0.8183,-0.7342,1.4269,0.7698,3.9633,10.9854,0.8238,-0.9699,1.0813,1.6607,-2.382,10.5701,15
-0.3104,0.8183,-0.7342,1.4269,0.7698,3.9633,10.9854,0.8238,-0.9699,1.0813,1.6607,-2.382,10.5701,16
-0.3132,1.035,-0.8023,1.4311,0.8084,4.1411,11.2863,0.8454,-0.8864,1.1945,1.8192,-2.4172,10.828,16
-0.314,1.035,-0.8023,1.4311,0.8084,4.1411,11.2863,0.8454,-0.8864,1.1945,1.8192,-2.4172,10.828,17
-0.3115,1.2551,-0.901,1.4874,0.8873,4.3296,11.5673,0.7371,-0.8437,1.1473,1.7537,-2.4414,11.1425,18
-0.3039,1.2551,-0.901,1.4874,0.8873,4.3296,11.5673,0.7371,-0.8437,1.1473,1.7537,-2.4414,11.1425,19
-0.2942,1.2551,-0.901,1.4874,0.8873,4.3296,11.5673,0.7371,-0.8437,1.1473,1.7537,-2.4414,11.1425,20
-0.2834,1.4193,-1.1006,1.725,0.9798,4.6422,11.8735,0.4999,-1.0215,1.072,1.4876,-2.4135,11.63,20
-0.2763,1.4193,-1.1006,1.725,0.9798,4.6422,11.8735,0.4999,-1.0215,1.072,1.4876,-2.4135,11.63,21
-0.2736,1.4348,-1.2999,2.2123,1.0619,5.1487,12.2748,0.2802,-1.3278,1.2937,1.2375,-2.3139,12.2628,22
-0.2745,1.4348,-1.2999,2.2123,1.0619,5.1487,12.2748,0.2802,-1.3278,1.2937,1.2375,-2.3139,12.2628,23
-0.2761,1.1797,-1.3154,2.8483,1.1655,5.7463,12.7383,0.2043,-1.5375,1.7862,1.1772,-2.1768,12.8522,23
-0.2778,1.1797,-1.3154,2.8483,1.1655,5.7463,12.7383,0.2043,-1.5375,1.7862,1.1772,-2.1768,12.8522,24
-0.2767,1.1797,-1.3154,2.8483,1.1655,5.7463,12.7383,0.2043,-1.5375,1.7862,1.1772,-2.1768,12.8522,25
-0.2717,0.5873,-0.9425,3.4827,1.339,6.2223,12.979,0.3919,-1.4937,2.2206,1.2869,-1.9824,13.0292,26
-0.2624,0.5873,-0.9425,3.4827,1.339,6.2223,12.979,0.3919,-1.4937,2.2206,1.2869,-1.9824,13.0292,27
-0.251,-0.3394,-0.202,4.0653,1.5339,6.4142,12.6257,0.8896,-1.2583,2.4174,1.3899,-1.6349,12.4828,27
-0.2368,-0.3394,-0.202,4.0653,1.5339,6.4142,12.6257,0.8896,-1.2583,2.4174,1.3899,-1.6349,12.4828,28
-0.2215,-1.4191,0.7851,4.6155,1.6201,6.2869,11.6292,1.4629,-1.0973,2.4389,1.3277,-1.1262,11.3571,29
-0.2083,-1.4191,0.7851,4.6155,1.6201,6.2869,11.6292,1.4629,-1.0973,2.4389,1.3277,-1.1262,11.3571,30
-0.1959,-2.3918,1.6997,5.0951,1.4494,5.9543,10.3202,1.77,-1.3139,2.4559,1.0888,-0.5486,10.1329,30
-0.1825,-2.3918,1.6997,5.0951,1.4494,5.9543,10.3202,1.77,-1.3139,2.4559,1.0888,-0.5486,10.1329,31
-0.1727,-3.0449,2.1472,5.363,0.9912,5.6279,9.116,1.6645,-1.843,2.5755,0.7587,0.0007,9.237,32
-0.164,-3.0449,2.1472,5.363,0.9912,5.6279,9.116,1.6645,-1.843,2.5755,0.7587,0.0007,9.237,33
-0.1568,-3.1998,2.2203,5.2957,0.4057,5.4905,8.3444,1.1762,-2.187,2.8201,0.491,0.4088,8.8845,34
-0.1488,-3.1998,2.2203,5.2957,0.4057,5.4905,8.3444,1.1762,-2.187,2.8201,0.491,0.4088,8.8845,34
-0.1425,-3.1998,2.2203,5.2957,0.4057,5.4905,8.3444,1.1762,-2.187,2.8201,0.491,0.4088,8.8845,35
-0.1353,-2.837,2.1541,4.8677,-0.1167,5.5598,8.1762,0.467,-2.112,3.1471,0.4396,0.5556,9.0601,36
-0.1284,-2.837,2.1541,4.8677,-0.1167,5.5598,8.1762,0.467,-2.112,3.1471,0.4396,0.5556,9.0601,37
-0.1196,-2.0597,2.0643,4.1442,-0.3925,5.6741,8.5401,-0.1679,-1.7128,3.4775,0.6391,0.4132,9.5544,38
-0.1111,-2.0597,2.0643,4.1442,-0.3925,5.6741,8.5401,-0.1679,-1.7128,3.4775,0.6391,0.4132,9.5544,38
-0.1019,-1.0476,1.9895,3.2566,-0.3092,5.689,9.1377,-0.5142,-1.0475,3.748,1.0334,0.1026,10.0803,39
-0.0929,-1.0476,1.9895,3.2566,-0.3092,5.689,9.1377,-0.5142,-1.0475,3.748,1.0334,0.1026,10.0803,40
-0.0836,-0.1308,1.8803,2.3537,0.0264,5.6242,9.6292,-0.5563,-0.1918,3.8977,1.4913,-0.1864,10.4103,41
-0.0748,-0.1308,1.8803,2.3537,0.0264,5.6242,9.6292,-0.5563,-0.1918,3.8977,1.4913,-0.1864,10.4103,41
-0.0658,0.5574,1.7673,1.5569,0.3881,5.5563,9.8216,-0.3971,0.6541,3.8556,1.8486,-0.3274,10.4662,42
-0.0574,0.5574,1.7673,1.5569,0.3881,5.5563,9.8216,-0.3971,0.6541,3.8556,1.8486,-0.3274,10.4662,43
-0.0483,1.0656,1.7599,0.9252,0.6017,5.5061,9.7193,-0.2065,1.2576,3.5711,2.0561,-0.3223,10.3012,44
-0.0413,1.0656,1.7599,0.9252,0.6017,5.5061,9.7193,-0.2065,1.2576,3.5711,2.0561,-0.3223,10.3012,45
-0.0344,1.2474,1.7523,0.4254,0.6351,5.4522,9.4643,-0.1316,1.5075,3.0373,2.1562,-0.2591,10.0337,45
-0.0283,1.2474,1.7523,0.4254,0.6351,5.4522,9.4643,-0.1316,1.5075,3.0373,2.1562,-0.2591,10.0337,46
-0.0218,1.144,1.6237,0.0033,0.5871,5.384,9.2181,-0.1994,1.4168,2.3268,2.1926,-0.2145,9.7917,47
-0.0164,1.144,1.6237,0.0033,0.5871,5.384,9.2181,-0.1994,1.4168,2.3268,2.1926,-0.2145,9.7917,48
-0.0116,0.9709,1.525,-0.3321,0.5739,5.3246,9.0911,-0.336,1.1085,1.5734,2.2075,-0.2042,9.6647,48
-0.0063,0.9709,1.525,-0.3321,0.5739,5.3246,9.0911,-0.336,1.1085,1.5734,2.2075,-0.2042,9.6647,49
-0.0019,0.7286,1.4896,-0.549,0.6293,5.3007,9.1275,-0.4545,0.7983,0.8804,2.2246,-0.2182,9.6848,50
0.0026,0.7286,1.4896,-0.549,0.6293,5.3007,9.1275,-0.4545,0.7983,0.8804,2.2246,-0.2182,9.6848,51
0.0083,0.395,1.4254,-0.6579,0.7154,5.3202,9.2819,-0.5098,0.6399,0.2871,2.2454,-0.2486,9.8021,52
0.0144,0.0514,1.3214,-0.7237,0.7994,5.3554,9.446,-0.5076,0.6148,-0.2018,2.2558,-0.2705,9.9332,52
0.023,0.0514,1.3214,-0.7237,0.7994,5.3554,9.446,-0.5076,0.6148,-0.2018,2.2558,-0.2705,9.9332,53
0.0299,0.0514,1.3214,-0.7237,0.7994,5.3554,9.446,-0.5076,0.6148,-0.2018,2.2558,-0.2705,9.9332,54
0.0375,-0.2078,1.1945,-0.8101,0.8753,5.3793,9.538,-0.473,0.6375,-0.5934,2.2215,-0.2465,10.0408,55
0.0453,-0.3379,1.0605,-0.9244,0.9326,5.41,9.5321,-0.4364,0.659,-0.8902,2.1245,-0.1685,10.1016,55
0.0533,-0.3379,1.0605,-0.9244,0.9326,5.41,9.5321,-0.4364,0.659,-0.8902,2.1245,-0.1685,10.1016,56
0.0615,-0.3519,0.9355,-1.0318,0.9479,5.4704,9.4462,-0.4362,0.6499,-1.0996,1.964,-0.0689,10.0902,57
0.0678,-0.3519,0.9355,-1.0318,0.9479,5.4704,9.4462,-0.4362,0.6499,-1.0996,1.964,-0.0689,10.0902,58
0.074,-0.3008,0.797,-1.113,0.8922,5.5657,9.3615,-0.5036,0.5828,-1.2438,1.7588,0.0237,10.0211,59
0.0814,-0.3008,0.797,-1.113,0.8922,5.5657,9.3615,-0.5036,0.5828,-1.2438,1.7588,0.0237,10.0211,59
0.0905,-0.2618,0.509,-1.2099,0.7623,5.6735,9.3619,-0.6533,0.4629,-1.3433,1.5924,0.0824,9.9528,60
0.0947,-0.2795,-0.0025,-1.3885,0.6267,5.7599,9.4762,-0.8918,0.3202,-1.4258,1.5477,0.0721,9.9634,61
0.0982,-0.2795,-0.0025,-1.3885,0.6267,5.7599,9.4762,-0.8918,0.3202,-1.4258,1.5477,0.0721,9.9634,62
0.1011,-0.3345,-0.6005,-1.6635,0.5792,5.823,9.71,-1.2072,0.1921,-1.5326,1.6188,-0.0219,10.0934,63
0.1032,-0.3345,-0.6005,-1.6635,0.5792,5.823,9.71,-1.2072,0.1921,-1.5326,1.6188,-0.0219,10.0934,63
0.1047,-0.3345,-0.6005,-1.6635,0.5792,5.823,9.71,-1.2072,0.1921,-1.5326,1.6188,-0.0219,10.0934,64
0.1062,-0.4048,-1.0934,-1.9781,0.6421,5.8665,10.025,-1.532,0.081,-1.6916,1.7398,-0.1968,10.3172,65
0.1081,-0.4048,-1.0934,-1.9781,0.6421,5.8665,10.025,-1.532,0.081,-1.6916,1.7398,-0.1968,10.3172,66
0.1101,-0.5002,-1.4003,-2.2422,0.7548,5.8832,10.3535,-1.7829,-0.105,-1.8993,1.85,-0.4212,10.6041,66
0.1127,-0.6234,-1.6139,-2.3998,0.8165,5.8909,10.6803,-1.9623,-0.4456,-2.12,1.9111,-0.6556,10.9756,67
0.1154,-0.6234,-1.6139,-2.3998,0.8165,5.8909,10.6803,-1.9623,-0.4456,-2.12,1.9111,-0.6556,10.9756,68
0.1166,-0.7547,-1.9199,-2.491,0.7701,5.9132,11.0544,-2.1158,-0.8968,-2.3252,1.9361,-0.9347,11.4382,69
0.1161,-0.7547,-1.9199,-2.491,0.7701,5.9132,11.0544,-2.1158,-0.8968,-2.3252,1.9361,-0.9347,11.4382,70
0.1158,-0.8688,-2.3395,-2.5827,0.6767,5.9222,11.5063,-2.2054,-1.3336,-2.5401,1.9697,-1.3224,11.9214,70
0.1149,-0.8688,-2.3395,-2.5827,0.6767,5.9222,11.5063,-2.2054,-1.3336,-2.5401,1.9697,-1.3224,11.9214,71
0.1118,-0.9611,-2.7324,-2.6633,0.6083,5.8633,11.9722,-2.1574,-1.6667,-2.8005,2.0104,-1.7888,12.3737,72
0.1046,-0.9611,-2.7324,-2.6633,0.6083,5.8633,11.9722,-2.1574,-1.6667,-2.8005,2.0104,-1.7888,12.3737,73
0.0952,-0.9611,-2.7324,-2.6633,0.6083,5.8633,11.9722,-2.1574,-1.6667,-2.8005,2.0104,-1.7888,12.3737,73
0.0817,-1.0405,-3.0429,-2.6938,0.5578,5.7301,12.3444,-1.945,-1.8249,-3.0845,2.068,-2.2379,12.743,74
0.0673,-1.1344,-3.1953,-2.6635,0.52,5.5443,12.5115,-1.5229,-1.7585,-3.3614,2.1447,-2.6005,12.8731,75
0.0494,-1.1344,-3.1953,-2.6635,0.52,5.5443,12.5115,-1.5229,-1.7585,-3.3614,2.1447,-2.6005,12.8731,76
0.029,-1.1344,-3.1953,-2.6635,0.52,5.5443,12.5115,-1.5229,-1.7585,-3.3614,2.1447,-2.6005,12.8731,77
0.0087,-1.3243,-2.9952,-2.5519,0.4995,5.2564,12.3364,-0.8221,-1.6107,-3.6683,2.1778,-2.8366,12.5635,77
-0.014,-1.3243,-2.9952,-2.5519,0.4995,5.2564,12.3364,-0.8221,-1.6107,-3.6683,2.1778,-2.8366,12.5635,78
-0.0376,-1.658,-2.4297,-2.3303,0.4163,4.7885,11.7651,0.0239,-1.4459,-4.0463,2.1201,-2.9133,11.7743,79
-0.0588,-2.0477,-1.8494,-2.0772,0.159,4.1968,10.9633,0.6661,-1.0632,-4.4455,1.9547,-2.8596,10.7693,80
-0.0822,-2.0477,-1.8494,-2.0772,0.159,4.1968,10.9633,0.6661,-1.0632,-4.4455,1.9547,-2.8596,10.7693,80
-0.1019,-2.0477,-1.8494,-2.0772,0.159,4.1968,10.9633,0.6661,-1.0632,-4.4455,1.9547,-2.8596,10.7693,81
-0.1221,-2.3238,-1.7049,-2.0267,-0.2147,3.6359,10.2268,0.8639,-0.2855,-4.7621,1.6939,-2.7571,9.916,82
-0.142,-2.3238,-1.7049,-2.0267,-0.2147,3.6359,10.2268,0.8639,-0.2855,-4.7621,1.6939,-2.7571,9.916,83
-0.1607,-2.3009,-2.0496,-2.3206,-0.4629,3.228,9.8029,0.6427,0.7009,-4.8923,1.3761,-2.6463,9.4561,84
-0.1815,-2.3009,-2.0496,-2.3206,-0.4629,3.228,9.8029,0.6427,0.7009,-4.8923,1.3761,-2.6463,9.4561,84
-0.2022,-1.8725,-2.5243,-2.8411,-0.4154,3.0434,9.7892,0.2428,1.3152,-4.7363,1.0826,-2.5486,9.4611,85
-0.2224,-1.8725,-2.5243,-2.8411,-0.4154,3.0434,9.7892,0.2428,1.3152,-4.7363,1.0826,-2.5486,9.4611,86
-0.2379,-1.0955,-2.6868,-3.3673,-0.0894,3.0811,10.0737,-0.0391,1.3748,-4.2865,0.9556,-2.485,9.8092,87
-0.253,-1.0955,-2.6868,-3.3673,-0.0894,3.0811,10.0737,-0.0391,1.3748,-4.2865,0.9556,-2.485,9.8092,88
-0.2671,-0.1512,-2.315,-3.7347,0.4275,3.2459,10.4088,-0.0572,1.23,-3.6576,1.0582,-2.4367,10.2403,88
-0.2802,-0.1512,-2.315,-3.7347,0.4275,3.2459,10.4088,-0.0572,1.23,-3.6576,1.0582,-2.4367,10.2403,89
-0.2953,0.7223,-1.5465,-3.8979,1.0029,3.4069,10.5882,0.1472,1.1301,-2.9792,1.3108,-2.3744,10.4975,90
-0.3076,0.7223,-1.5465,-3.8979,1.0029,3.4069,10.5882,0.1472,1.1301,-2.9792,1.3108,-2.3744,10.4975,91
-0.3186,0.7223,-1.5465,-3.8979,1.0029,3.4069,10.5882,0.1472,1.1301,-2.9792,1.3108,-2.3744,10.4975,91
-0.329,1.3824,-0.5811,-3.8905,1.4683,3.4832,10.549,0.4758,1.1631,-2.3605,1.5932,-2.2839,10.4607,92
-0.3388,1.8319,0.3915,-3.7724,1.7122,3.4622,10.3323,0.8113,1.3786,-1.8859,1.8133,-2.172,10.157,93
-0.3542,1.8319,0.3915,-3.7724,1.7122,3.4622,10.3323,0.8113,1.3786,-1.8859,1.8133,-2.172,10.157,94
-0.3633,2.1112,1.1649,-3.5962,1.7502,3.3811,10.0031,1.0174,1.7601,-1.5644,1.9177,-2.0542,9.7,95
-0.3712,2.1112,1.1649,-3.5962,1.7502,3.3811,10.0031,1.0174,1.7601,-1.5644,1.9177,-2.0542,9.7,95
-0.379,2.2661,1.618,-3.3643,1.6806,3.3035,9.666,1.0512,2.1581,-1.3399,1.9044,-1.9278,9.2399,96
-0.3854,2.2661,1.618,-3.3643,1.6806,3.3035,9.666,1.0512,2.1581,-1.3399,1.9044,-1.9278,9.2399,97
-0.39,2.3464,1.7441,-3.0602,1.5746,3.2804,9.4354,0.9691,2.3789,-1.1618,1.8234,-1.8038,8.9117,98
-0.3942,2.3464,1.7441,-3.0602,1.5746,3.2804,9.4354,0.9691,2.3789,-1.1618,1.8234,-1.8038,8.9117,98
-0.3969,2.3767,1.6316,-2.675,1.4637,3.3237,9.3597,0.8223,2.3356,-0.9944,1.7221,-1.7253,8.7857,99
-0.3983,2.3767,1.6316,-2.675,1.4637,3.3237,9.3597,0.8223,2.3356,-0.9944,1.7221,-1.7253,8.7857,0
-0.3983,2.3767,1.6316,-2.675,1.4637,3.3237,9.3597,0.8223,2.3356,-0.9944,1.7221,-1.7253,8.7857,1
-0.3982,2.3381,1.3536,-2.2053,1.3818,3.4144,9.4399,0.6528,2.0796,-0.7966,1.6237,-1.7271,8.8568,2
-0.3978,2.1872,1.0026,-1.6657,1.3572,3.5187,9.6373,0.3961,1.7344,-0.5384,1.5403,-1.8101,9.0408,2
-0.3962,2.1872,1.0026,-1.6657,1.3572,3.5187,9.6373,0.3961,1.7344,-0.5384,1.5403,-1.8101,9.0408,3
-0.3919,2.1872,1.0026,-1.6657,1.3572,3.5187,9.6373,0.3961,1.7344,-0.5384,1.5403,-1.8101,9.0408,4
-0.385,1.8963,0.7094,-1.0766,1.3884,3.5908,9.8618,0.0769,1.3811,-0.2187,1.4643,-1.9329,9.1946,5
-0.3748,1.4829,0.512,-0.4467,1.4388,3.5903,10.0185,-0.0291,1.0292,0.1292,1.3912,-2.0469,9.25,6
-0.361,1.4829,0.512,-0.4467,1.4388,3.5903,10.0185,-0.0291,1.0292,0.1292,1.3912,-2.0469,9.25,6
-0.3466,1.024,0.3682,0.2236,1.4496,3.5178,10.0884,0.1114,0.6651,0.4622,1.3313,-2.1501,9.293,7
-0.3296,1.024,0.3682,0.2236,1.4496,3.5178,10.0884,0.1114,0.6651,0.4622,1.3313,-2.1501,9.293,8
-0.3159,0.6437,0.2375,0.9048,1.3673,3.4332,10.1287,0.3079,0.2656,0.7678,1.2848,-2.2515,9.4389,9
-0.3017,0.6437,0.2375,0.9048,1.3673,3.4332,10.1287,0.3079,0.2656,0.7678,1.2848,-2.2515,9.4389,9
-0.2915,0.4383,0.0713,1.5205,1.1948,3.4246,10.2042,0.4838,-0.1839,1.0723,1.2666,-2.3291,9.7291,10
-0.2877,0.4383,0.0713,1.5205,1.1948,3.4246,10.2042,0.4838,-0.1839,1.0723,1.2666,-2.3291,9.7291,11
-0.2878,0.4227,-0.1271,2.0007,1.0058,3.5439,10.3577,0.6388,-0.6281,1.3966,1.3224,-2.3726,10.1426,12
-0.289,0.4227,-0.1271,2.0007,1.0058,3.5439,10.3577,0.6388,-0.6281,1.3966,1.3224,-2.3726,10.1426,13
-0.2914,0.5757,-0.2842,2.3135,0.8719,3.7682,10.5914,0.8097,-0.9646,1.7122,1.4754,-2.3918,10.5856,13
-0.295,0.5757,-0.2842,2.3135,0.8719,3.7682,10.5914,0.8097,-0.9646,1.7122,1.4754,-2.3918,10.5856,14
-0.3001,0.8579,-0.3885,2.4742,0.8272,4.0201,10.8508,1.0199,-1.1591,1.955,1.6655,-2.3721,10.9314,15
-0.3054,0.8579,-0.3885,2.4742,0.8272,4.0201,10.8508,1.0199,-1.1591,1.955,1.6655,-2.3721,10.9314,16
-0.3086,0.8579,-0.3885,2.4742,0.8272,4.0201,10.8508,1.0199,-1.1591,1.955,1.6655,-2.3721,10.9314,17
-0.3092,1.2033,-0.5217,2.5551,0.8762,4.2449,11.0946,1.1937,-1.2936,2.1027,1.7891,-2.3046,11.1621,17
-0.3082,1.5584,-0.7447,2.6461,0.9816,4.4848,11.3802,1.1938,-1.4514,2.2207,1.8148,-2.2181,11.414,18
-0.3049,1.5584,-0.7447,2.6461,0.9816,4.4848,11.3802,1.1938,-1.4514,2.2207,1.8148,-2.2181,11.414,19
-0.3004,1.8767,-1.0156,2.8151,1.0965,4.8557,11.7762,0.9806,-1.6077,2.3946,1.7887,-2.1237,11.8205,20
-0.2953,1.8767,-1.0156,2.8151,1.0965,4.8557,11.7762,0.9806,-1.6077,2.3946,1.7887,-2.1237,11.8205,20
-0.293,1.8767,-1.0156,2.8151,1.0965,4.8557,11.7762,0.9806,-1.6077,2.3946,1.7887,-2.1237,11.8205,21
-0.2918,2.0604,-1.1813,3.1019,1.23,5.4246,12.2902,0.6571,-1.696,2.6424,1.7502,-2.0062,12.3982,22
-0.292,1.9821,-1.0316,3.4867,1.4084,6.0946,12.8427,0.4165,-1.6453,2.9008,1.748,-1.8621,13,23
-0.2933,1.9821,-1.0316,3.4867,1.4084,6.0946,12.8427,0.4165,-1.6453,2.9008,1.748,-1.8621,13,24
-0.2946,1.5519,-0.4452,3.8972,1.6319,6.6566,13.2119,0.4347,-1.2641,3.0634,1.8293,-1.664,13.3045,24
-0.296,1.5519,-0.4452,3.8972,1.6319,6.6566,13.2119,0.4347,-1.2641,3.0634,1.8293,-1.664,13.3045,25
-0.2938,1.5519,-0.4452,3.8972,1.6319,6.6566,13.2119,0.4347,-1.2641,3.0634,1.8293,-1.664,13.3045,26
-0.2859,0.707,0.3606,4.258,1.8435,6.9478,13.1265,0.7242,-0.6105,3.0638,1.9256,-1.3727,12.999,27
-0.275,-0.4906,1.1991,4.572,1.9207,6.8861,12.4123,1.1295,-0.2169,2.9256,1.8692,-0.9895,12.0204,28
-0.2602,-0.4906,1.1991,4.572,1.9207,6.8861,12.4123,1.1295,-0.2169,2.9256,1.8692,-0.9895,12.0204,28
-0.2461,-1.7526,2.1317,4.8952,1.7739,6.4982,11.1837,1.3923,-0.5003,2.7463,1.5566,-0.539,10.6861,29
-0.2293,-1.7526,2.1317,4.8952,1.7739,6.4982,11.1837,1.3923,-0.5003,2.7463,1.5566,-0.539,10.6861,30
-0.2168,-2.796,2.7862,5.1644,1.369,5.9819,9.8611,1.3046,-1.222,2.6597,1.0547,-0.0927,9.5147,31
-0.206,-2.796,2.7862,5.1644,1.369,5.9819,9.8611,1.3046,-1.222,2.6597,1.0547,-0.0927,9.5147,31
-0.1975,-3.4459,2.8491,5.2681,0.7602,5.5944,8.8619,0.8641,-1.725,2.7816,0.5409,0.2435,8.8798,32
-0.1914,-3.4459,2.8491,5.2681,0.7602,5.5944,8.8619,0.8641,-1.725,2.7816,0.5409,0.2435,8.8798,33
-0.1864,-3.5269,2.7342,5.1674,0.1208,5.4593,8.4378,0.2032,-1.7877,3.1527,0.2167,0.384,8.8723,34
-0.1823,-3.5269,2.7342,5.1674,0.1208,5.4593,8.4378,0.2032,-1.7877,3.1527,0.2167,0.384,8.8723,35
-0.1784,-3.5269,2.7342,5.1674,0.1208,5.4593,8.4378,0.2032,-1.7877,3.1527,0.2167,0.384,8.8723,35
-0.1727,-3.034,2.7854,4.8534,-0.3475,5.5093,8.6139,-0.4646,-1.4278,3.6894,0.199,0.2755,9.3501,36
-0.1653,-3.034,2.7854,4.8534,-0.3475,5.5093,8.6139,-0.4646,-1.4278,3.6894,0.199,0.2755,9.3501,37
-0.1572,-2.1956,2.8343,4.34,-0.4836,5.5837,9.1431,-0.9097,-0.6775,4.2644,0.4536,-0.019,10.0238,38
-0.1478,-1.271,2.7001,3.6891,-0.2614,5.5857,9.7023,-1.0373,0.1443,4.7896,0.8971,-0.3321,10.5896,39
-0.1363,-1.271,2.7001,3.6891,-0.2614,5.5857,9.7023,-1.0373,0.1443,4.7896,0.8971,-0.3321,10.5896,39
-0.1263,-1.271,2.7001,3.6891,-0.2614,5.5857,9.7023,-1.0373,0.1443,4.7896,0.8971,-0.3321,10.5896,40
-0.1158,-0.5175,2.5188,3.0072,0.1374,5.5488,10.057,-0.8814,0.8702,5.1532,1.3957,-0.5318,10.8592,41
-0.1043,-0.1244,2.3886,2.3849,0.4461,5.5094,10.0904,-0.5574,1.4965,5.2432,1.7729,-0.5774,10.7853,42
-0.0939,-0.1244,2.3886,2.3849,0.4461,5.5094,10.0904,-0.5574,1.4965,5.2432,1.7729,-0.5774,10.7853,43
-0.0834,-0.1244,2.3886,2.3849,0.4461,5.5094,10.0904,-0.5574,1.4965,5.2432,1.7729,-0.5774,10.7853,43
-0.0737,-0.013,2.2802,1.8628,0.5227,5.4479,9.8356,-0.2385,1.952,5.0081,1.9713,-0.5099,10.4676,44
-0.0649,-0.013,2.2802,1.8628,0.5227,5.4479,9.8356,-0.2385,1.952,5.0081,1.9713,-0.5099,10.4676,45
-0.0558,0.0608,2.1837,1.4107,0.4277,5.3603,9.4415,-0.0778,2.1413,4.4694,2.0379,-0.4077,10.112,46
-0.0478,0.0608,2.1837,1.4107,0.4277,5.3603,9.4415,-0.0778,2.1413,4.4694,2.0379,-0.4077,10.112,46
-0.0396,0.2103,2.0121,0.9803,0.334,5.2557,9.0967,-0.1,2.0019,3.7397,2.015,-0.3298,9.8705,47
-0.0309,0.3981,1.8038,0.6106,0.3672,5.1516,8.9295,-0.2024,1.5846,2.9607,1.982,-0.2896,9.758,48
-0.025,0.3981,1.8038,0.6106,0.3672,5.1516,8.9295,-0.2024,1.5846,2.9607,1.982,-0.2896,9.758,49
-0.0188,0.5593,1.6607,0.3564,0.5259,5.0928,8.9457,-0.2985,1.0705,2.2195,2.0356,-0.2602,9.7387,50
-0.0119,0.5593,1.6607,0.3564,0.5259,5.0928,8.9457,-0.2985,1.0705,2.2195,2.0356,-0.2602,9.7387,50
-0.0047,0.6202,1.5467,0.199,0.7221,5.1202,9.0713,-0.3753,0.6567,1.5386,2.1755,-0.2115,9.7813,51
0.0028,0.6202,1.5467,0.199,0.7221,5.1202,9.0713,-0.3753,0.6567,1.5386,2.1755,-0.2115,9.7813,52
0.0098,0.5275,1.4825,0.0765,0.866,5.2272,9.2103,-0.4415,0.4506,0.9044,2.3274,-0.141,9.8455,53
0.0182,0.5275,1.4825,0.0765,0.866,5.2272,9.2103,-0.4415,0.4506,0.9044,2.3274,-0.141,9.8455,54
0.0264,0.3135,1.4981,-0.0818,0.9405,5.3617,9.2827,-0.4947,0.4537,0.3032,2.4286,-0.0624,9.8713,54
0.035,0.3135,1.4981,-0.0818,0.9405,5.3617,9.2827,-0.4947,0.4537,0.3032,2.4286,-0.0624,9.8713,55
0.0469,0.0716,1.4563,-0.3173,0.9689,5.4741,9.2585,-0.5487,0.5496,-0.2551,2.4368,0.0346,9.8144,56
0.0559,0.0716,1.4563,-0.3173,0.9689,5.4741,9.2585,-0.5487,0.5496,-0.2551,2.4368,0.0346,9.8144,57
0.0647,-0.1191,1.2754,-0.5978,0.9559,5.5555,9.1875,-0.6637,0.6229,-0.7506,2.3151,0.1585,9.6986,57
0.0727,-0.1191,1.2754,-0.5978,0.9559,5.5555,9.1875,-0.6637,0.6229,-0.7506,2.3151,0.1585,9.6986,58
0.0821,-0.2609,1.0267,-0.8599,0.8638,5.6497,9.1605,-0.897,0.6367,-1.1714,2.0499,0.2645,9.6096,59
0.0906,-0.4472,0.6745,-1.0982,0.649,5.7856,9.2399,-1.2304,0.5671,-1.506,1.6883,0.2924,9.6397,60
0.0971,-0.4472,0.6745,-1.0982,0.649,5.7856,9.2399,-1.2304,0.5671,-1.506,1.6883,0.2924,9.6397,61
0.1018,-0.7268,0.0909,-1.353,0.3773,5.9067,9.4436,-1.5858,0.3759,-1.7406,1.3544,0.2138,9.8228,61
0.105,-0.7268,0.0909,-1.353,0.3773,5.9067,9.4436,-1.5858,0.3759,-1.7406,1.3544,0.2138,9.8228,62
0.1064,-1.0142,-0.6635,-1.6365,0.1988,5.9582,9.7443,-1.8986,0.0654,-1.8818,1.1835,0.0297,10.1252,63
0.1072,-1.0142,-0.6635,-1.6365,0.1988,5.9582,9.7443,-1.8986,0.0654,-1.8818,1.1835,0.0297,10.1252,64
0.1077,-1.0142,-0.6635,-1.6365,0.1988,5.9582,9.7443,-1.8986,0.0654,-1.8818,1.1835,0.0297,10.1252,65
0.1079,-1.1933,-1.3616,-1.9161,0.1913,5.9467,10.0993,-2.1604,-0.2959,-1.9722,1.2212,-0.243,10.5233,65
0.108,-1.1933,-1.3616,-1.9161,0.1913,5.9467,10.0993,-2.1604,-0.2959,-1.9722,1.2212,-0.243,10.5233,66
0.1083,-1.1888,-1.8692,-2.1532,0.2773,5.9084,10.5221,-2.4212,-0.6549,-2.0475,1.3959,-0.6065,11.059,67
0.1085,-1.1888,-1.8692,-2.1532,0.2773,5.9084,10.5221,-2.4212,-0.6549,-2.0475,1.3959,-0.6065,11.059,68
0.1083,-1.0036,-2.2529,-2.3633,0.3178,5.8829,11.0711,-2.6719,-0.9943,-2.1298,1.591,-1.0981,11.7366,69
0.1075,-1.0036,-2.2529,-2.3633,0.3178,5.8829,11.0711,-2.6719,-0.9943,-2.1298,1.591,-1.0981,11.7366,69
0.1071,-0.7351,-2.6163,-2.5967,0.2874,5.8639,11.7211,-2.7695,-1.266,-2.2711,1.7237,-1.7047,12.4567,70
0.1051,-0.4603,-2.9381,-2.8334,0.27,5.7957,12.3507,-2.5834,-1.4472,-2.4881,1.7747,-2.3156,13.0877,71
0.1005,-0.4603,-2.9381,-2.8334,0.27,5.7957,12.3507,-2.5834,-1.4472,-2.4881,1.7747,-2.3156,13.0877,72
0.0912,-0.4603,-2.9381,-2.8334,0.27,5.7957,12.3507,-2.5834,-1.4472,-2.4881,1.7747,-2.3156,13.0877,72
0.079,-0.235,-3.1446,-2.984,0.3357,5.6405,12.8049,-2.0822,-1.5484,-2.7114,1.8018,-2.8053,13.4616,73
0.0655,-0.235,-3.1446,-2.984,0.3357,5.6405,12.8049,-2.0822,-1.5484,-2.7114,1.8018,-2.8053,13.4616,74
0.0473,-0.1707,-3.0892,-2.9496,0.4848,5.3836,12.9011,-1.2865,-1.5939,-2.9068,1.8535,-3.0937,13.3957,75
0.027,-0.3632,-2.5874,-2.6521,0.6378,5.0079,12.5092,-0.2765,-1.584,-3.1415,1.8779,-3.1457,12.7717,76
0.0021,-0.3632,-2.5874,-2.6521,0.6378,5.0079,12.5092,-0.2765,-1.584,-3.1415,1.8779,-3.1457,12.7717,76
-0.0188,-0.8009,-1.7334,-2.1145,0.6602,4.5326,11.6719,0.7225,-1.4102,-3.4759,1.7951,-2.987,11.6674,77
-0.043,-0.8009,-1.7334,-2.1145,0.6602,4.5326,11.6719,0.7225,-1.4102,-3.4759,1.7951,-2.987,11.6674,78
-0.0629,-1.3375,-0.9722,-1.54,0.4441,4.0193,10.6479,1.3897,-0.984,-3.857,1.6143,-2.7201,10.4297,79
-0.0812,-1.3375,-0.9722,-1.54,0.4441,4.0193,10.6479,1.3897,-0.984,-3.857,1.6143,-2.7201,10.4297,80
-0.1022,-1.7567,-0.7508,-1.2283,0.038,3.5457,9.7762,1.5576,-0.3534,-4.1555,1.3785,-2.4741,9.4473,80
-0.1236,-1.7567,-0.7508,-1.2283,0.038,3.5457,9.7762,1.5576,-0.3534,-4.1555,1.3785,-2.4741,9.4473,81
-0.1458,-1.8903,-1.179,-1.3446,-0.3703,3.2033,9.2795,1.3016,0.3455,-4.4105,1.1045,-2.3298,8.9399,82
-0.1711,-1.8903,-1.179,-1.3446,-0.3703,3.2033,9.2795,1.3016,0.3455,-4.4105,1.1045,-2.3298,8.9399,83
-0.1936,-1.6094,-1.8434,-1.7961,-0.5715,3.0693,9.2494,0.8223,0.9071,-4.591,0.8596,-2.2883,8.938,83
-0.2154,-1.6094,-1.8434,-1.7961,-0.5715,3.0693,9.2494,0.8223,0.9071,-4.591,0.8596,-2.2883,8.938,84
-0.2342,-0.9001,-2.1947,-2.3688,-0.4423,3.1409,9.6345,0.357,1.1025,-4.3765,0.7596,-2.3027,9.3087,85
-0.2534,-0.9001,-2.1947,-2.3688,-0.4423,3.1409,9.6345,0.357,1.1025,-4.3765,0.7596,-2.3027,9.3087,86
-0.2677,0.0162,-2.1232,-2.9054,-0.0248,3.3187,10.194,0.0755,0.9662,-3.7272,0.857,-2.3347,9.7951,87
-0.2808,0.0162,-2.1232,-2.9054,-0.0248,3.3187,10.194,0.0755,0.9662,-3.7272,0.857,-2.3347,9.7951,87
-0.2929,0.0162,-2.1232,-2.9054,-0.0248,3.3187,10.194,0.0755,0.9662,-3.7272,0.857,-2.3347,9.7951,88
-0.3039,0.8628,-1.6937,-3.3039,0.5492,3.4702,10.6355,0.0215,0.8014,-2.9053,1.1115,-2.3656,10.1241,89
-0.314,1.4657,-0.9495,-3.4916,1.1189,3.5332,10.7983,0.1595,0.8222,-2.1226,1.44,-2.3774,10.171,90
-0.3236,1.4657,-0.9495,-3.4916,1.1189,3.5332,10.7983,0.1595,0.8222,-2.1226,1.44,-2.3774,10.171,91
-0.3328,1.7578,-0.0749,-3.4721,1.5154,3.5147,10.6675,0.3925,1.0031,-1.5025,1.7064,-2.3423,9.9766,91
-0.3426,1.7578,-0.0749,-3.4721,1.5154,3.5147,10.6675,0.3925,1.0031,-1.5025,1.7064,-2.3423,9.9766,92
-0.3518,1.7578,-0.0749,-3.4721,1.5154,3.5147,10.6675,0.3925,1.0031,-1.5025,1.7064,-2.3423,9.9766,93
-0.3602,1.8238,0.7113,-3.3142,1.6706,3.4316,10.3159,0.591,1.2713,-1.0596,1.8333,-2.2569,9.6358,94
-0.3683,1.8451,1.2843,-3.0989,1.63,3.33,9.8915,0.6842,1.6062,-0.7666,1.8954,-2.1447,9.2713,94
-0.3773,1.8451,1.2843,-3.0989,1.63,3.33,9.8915,0.6842,1.6062,-0.7666,1.8954,-2.1447,9.2713,95
-0.3843,1.9323,1.6272,-2.8872,1.4832,3.2697,9.5604,0.6829,1.9214,-0.6063,1.9563,-2.0283,9.0125,96
-0.3903,1.9323,1.6272,-2.8872,1.4832,3.2697,9.5604,0.6829,1.9214,-0.6063,1.9563,-2.0283,9.0125,97
-0.3961,1.9323,1.6272,-2.8872,1.4832,3.2697,9.5604,0.6829,1.9214,-0.6063,1.9563,-2.0283,9.0125,98
-0.4013,2.0767,1.7464,-2.6739,1.3166,3.2847,9.419,0.6153,2.1219,-0.5668,2.0022,-1.9403,8.9191,98
-0.4036,2.0767,1.7464,-2.6739,1.3166,3.2847,9.419,0.6153,2.1219,-0.5668,2.0022,-1.9403,8.9191,99
-0.4038,2.2053,1.6397,-2.4175,1.1771,3.3837,9.468,0.5168,2.1607,-0.6165,2.0116,-1.9033,8.9827,0
-0.4037,2.2319,1.3584,-2.1157,1.1076,3.534,9.6499,0.4332,2.0368,-0.6928,1.9773,-1.9103,9.1393,1
-0.4033,2.2319,1.3584,-2.1157,1.1076,3.534,9.6499,0.4332,2.0368,-0.6928,1.9773,-1.9103,9.1393,2
-0.4026,2.0974,0.982,-1.7896,1.1459,3.6685,9.8731,0.3959,1.7978,-0.725,1.9004,-1.9361,9.2793,2
-0.4008,2.0974,0.982,-1.7896,1.1459,3.6685,9.8731,0.3959,1.7978,-0.725,1.9004,-1.9361,9.2793,3
-0.3961,1.7912,0.5938,-1.4354,1.2594,3.7304,10.0471,0.4062,1.4934,-0.6721,1.791,-1.9704,9.3283,4
-0.3884,1.7912,0.5938,-1.4354,1.2594,3.7304,10.0471,0.4062,1.4934,-0.6721,1.791,-1.9704,9.3283,5
-0.3772,1.3834,0.3013,-1.0096,1.3786,3.6927,10.1452,0.4092,1.1488,-0.537,1.6717,-2.0386,9.3125,5
-0.3659,1.3834,0.3013,-1.0096,1.3786,3.6927,10.1452,0.4092,1.1488,-0.537,1.6717,-2.0386,9.3125,6
-0.351,0.9886,0.1371,-0.4797,1.4317,3.5891,10.2009,0.343,0.7674,-0.3469,1.5447,-2.1658,9.3536,7
-0.3376,0.9886,0.1371,-0.4797,1.4317,3.5891,10.2009,0.343,0.7674,-0.3469,1.5447,-2.1658,9.3536,8
-0.3233,0.6897,-0.002,0.117,1.3669,3.5075,10.2765,0.245,0.3403,-0.1106,1.3907,-2.352,9.5578,9
-0.3122,0.6897,-0.002,0.117,1.3669,3.5075,10.2765,0.245,0.3403,-0.1106,1.3907,-2.352,9.5578,9
-0.3039,0.5126,-0.225,0.6978,1.2109,3.5006,10.4244,0.2298,-0.1495,0.1896,1.227,-2.5575,9.9203,10
-0.2999,0.5126,-0.225,0.6978,1.2109,3.5006,10.4244,0.2298,-0.1495,0.1896,1.227,-2.5575,9.9203,11
-0.3002,0.4686,-0.4415,1.2079,1.0304,3.568,10.6543,0.3662,-0.6675,0.5511,1.1171,-2.734,10.3698,12
-0.3022,0.4686,-0.4415,1.2079,1.0304,3.568,10.6543,0.3662,-0.6675,0.5511,1.1171,-2.734,10.3698,13
-0.3039,0.4686,-0.4415,1.2079,1.0304,3.568,10.6543,0.3662,-0.6675,0.5511,1.1171,-2.734,10.3698,13
-0.3063,0.5697,-0.4677,1.6274,0.8646,3.7095,10.9368,0.6442,-1.0665,0.9196,1.1183,-2.8568,10.7982,14
-0.3082,0.5697,-0.4677,1.6274,0.8646,3.7095,10.9368,0.6442,-1.0665,0.9196,1.1183,-2.8568,10.7982,15
-0.3102,0.7497,-0.3434,1.9443,0.7244,3.9079,11.2099,1.0004,-1.2337,1.2271,1.1972,-2.8876,11.1158,16
-0.3111,0.9184,-0.2615,2.1651,0.623,4.1148,11.4154,1.3139,-1.2301,1.4698,1.2505,-2.8011,11.3307,16
-0.3111,0.9184,-0.2615,2.1651,0.623,4.1148,11.4154,1.3139,-1.2301,1.4698,1.2505,-2.8011,11.3307,17
-0.3106,1.0842,-0.3223,2.3244,0.5887,4.3307,11.5482,1.4536,-1.1874,1.701,1.2464,-2.6293,11.517,18
-0.3089,1.0842,-0.3223,2.3244,0.5887,4.3307,11.5482,1.4536,-1.1874,1.701,1.2464,-2.6293,11.517,19
-0.304,1.2948,-0.5053,2.493,0.6235,4.6416,11.6785,1.3577,-1.1931,1.9578,1.2223,-2.411,11.7599,20
-0.2973,1.2948,-0.5053,2.493,0.6235,4.6416,11.6785,1.3577,-1.1931,1.9578,1.2223,-2.411,11.7599,20
-0.293,1.5051,-0.743,2.725,0.6875,5.1143,11.9208,1.0699,-1.2338,2.2449,1.2186,-2.1777,12.1374,21
-0.2902,1.5051,-0.743,2.725,0.6875,5.1143,11.9208,1.0699,-1.2338,2.2449,1.2186,-2.1777,12.1374,22
-0.2886,1.57,-0.8577,3.0014,0.7937,5.7143,12.2989,0.7708,-1.2022,2.5191,1.2619,-1.9536,12.5895,23
-0.2891,1.57,-0.8577,3.0014,0.7937,5.7143,12.2989,0.7708,-1.2022,2.5191,1.2619,-1.9536,12.5895,23
-0.2891,1.3447,-0.5988,3.2885,0.997,6.3071,12.6172,0.6775,-1.0674,2.6929,1.3395,-1.7066,12.8128,24
-0.2883,1.3447,-0.5988,3.2885,0.997,6.3071,12.6172,0.6775,-1.0674,2.6929,1.3395,-1.7066,12.8128,25
-0.2842,0.6938,-0.0063,3.5829,1.2352,6.6843,12.5449,0.8606,-0.9171,2.7016,1.4068,-1.3866,12.5109,26
-0.2752,0.6938,-0.0063,3.5829,1.2352,6.6843,12.5449,0.8606,-0.9171,2.7016,1.4068,-1.3866,12.5109,27
-0.2651,-0.3347,0.75,3.8998,1.3629,6.704,11.9018,1.2032,-0.8427,2.5461,1.3822,-0.9853,11.7038,27
-0.25,-0.3347,0.75,3.8998,1.3629,6.704,11.9018,1.2032,-0.8427,2.5461,1.3822,-0.9853,11.7038,28
-0.2364,-1.4042,1.5505,4.2356,1.2919,6.4483,10.851,1.4748,-0.9402,2.3225,1.1833,-0.527,10.7077,29
-0.2207,-1.4042,1.5505,4.2356,1.2919,6.4483,10.851,1.4748,-0.9402,2.3225,1.1833,-0.527,10.7077,30
-0.2083,-2.2628,2.0586,4.5315,1.0013,6.1353,9.7665,1.5111,-1.1879,2.1806,0.8423,-0.0798,9.8799,30
-0.1975,-2.2628,2.0586,4.5315,1.0013,6.1353,9.7665,1.5111,-1.1879,2.1806,0.8423,-0.0798,9.8799,31
-0.1901,-2.2628,2.0586,4.5315,1.0013,6.1353,9.7665,1.5111,-1.1879,2.1806,0.8423,-0.0798,9.8799,32
-0.183,-2.8115,2.1466,4.6964,0.5523,5.9264,8.9875,1.2828,-1.4307,2.2194,0.5123,0.269,9.4488,33
-0.1765,-2.9281,2.0617,4.6301,0.0618,5.8591,8.7091,0.8561,-1.5747,2.4397,0.3759,0.4242,9.4729,34
-0.1694,-2.9281,2.0617,4.6301,0.0618,5.8591,8.7091,0.8561,-1.5747,2.4397,0.3759,0.4242,9.4729,34
-0.1622,-2.9281,2.0617,4.6301,0.0618,5.8591,8.7091,0.8561,-1.5747,2.4397,0.3759,0.4242,9.4729,35
-0.1552,-2.5945,1.9258,4.2646,-0.3183,5.8452,8.8936,0.3889,-1.5406,2.7527,0.52,0.3289,9.801,36
-0.1454,-2.5945,1.9258,4.2646,-0.3183,5.8452,8.8936,0.3889,-1.5406,2.7527,0.52,0.3289,9.801,37
-0.137,-1.9683,1.7117,3.6422,-0.4113,5.77,9.2897,0.028,-1.2671,3.055,0.8706,0.0748,10.1663,38
-0.1277,-1.9683,1.7117,3.6422,-0.4113,5.77,9.2897,0.028,-1.2671,3.055,0.8706,0.0748,10.1663,38
-0.1173,-1.2889,1.5082,2.8977,-0.1917,5.6246,9.654,-0.1592,-0.7755,3.2755,1.2914,-0.1834,10.3622,39
-0.1072,-1.2889,1.5082,2.8977,-0.1917,5.6246,9.654,-0.1592,-0.7755,3.2755,1.2914,-0.1834,10.3622,40
-0.0979,-0.7944,1.4567,2.1585,0.1393,5.485,9.8503,-0.1907,-0.1505,3.3528,1.6625,-0.3396,10.3124,41
-0.0876,-0.7944,1.4567,2.1585,0.1393,5.485,9.8503,-0.1907,-0.1505,3.3528,1.6625,-0.3396,10.3124,41
-0.0778,-0.5814,1.3721,1.4742,0.3147,5.3878,9.8125,-0.1716,0.4682,3.2373,1.9074,-0.3581,10.0537,42
-0.0674,-0.5814,1.3721,1.4742,0.3147,5.3878,9.8125,-0.1716,0.4682,3.2373,1.9074,-0.3581,10.0537,43
-0.0582,-0.5229,1.0084,0.8469,0.2763,5.3106,9.5786,-0.2171,0.9445,2.9184,2.0134,-0.2721,9.7091,44
-0.0495,-0.5229,1.0084,0.8469,0.2763,5.3106,9.5786,-0.2171,0.9445,2.9184,2.0134,-0.2721,9.7091,45
-0.0424,-0.4416,0.5652,0.2892,0.2217,5.2354,9.2834,-0.383,1.1914,2.4394,2.025,-0.1626,9.4337,45
-0.0339,-0.4416,0.5652,0.2892,0.2217,5.2354,9.2834,-0.383,1.1914,2.4394,2.025,-0.1626,9.4337,46
-0.0282,-0.2939,0.2974,-0.169,0.2992,5.1467,9.0603,-0.6379,1.2012,1.8732,2.0071,-0.1336,9.3315,47
-0.0219,-0.2939,0.2974,-0.169,0.2992,5.1467,9.0603,-0.6379,1.2012,1.8732,2.0071,-0.1336,9.3315,48
-0.015,-0.2939,0.2974,-0.169,0.2992,5.1467,9.0603,-0.6379,1.2012,1.8732,2.0071,-0.1336,9.3315,48
-0.009,-0.1258,0.2474,-0.4872,0.4991,5.0449,8.9948,-0.8766,1.0549,1.2858,2.0093,-0.2103,9.4243,49
-0.0035,-0.0044,0.3857,-0.6474,0.7651,4.973,9.1086,-1.0031,0.8445,0.7312,2.0698,-0.3311,9.661,50
0.003,-0.0044,0.3857,-0.6474,0.7651,4.973,9.1086,-1.0031,0.8445,0.7312,2.0698,-0.3311,9.661,51
0.0132,-0.0044,0.3857,-0.6474,0.7651,4.973,9.1086,-1.0031,0.8445,0.7312,2.0698,-0.3311,9.661,52
0.0203,0.0089,0.6082,-0.6971,1.0214,4.9798,9.3175,-0.9857,0.6444,0.2363,2.1745,-0.4175,9.9567,52
0.028,0.0089,0.6082,-0.6971,1.0214,4.9798,9.3175,-0.9857,0.6444,0.2363,2.1745,-0.4175,9.9567,53
0.0351,-0.0544,0.822,-0.7176,1.1969,5.0603,9.4879,-0.8339,0.4947,-0.2044,2.2703,-0.4221,10.2183,54
0.0424,-0.108,0.977,-0.7638,1.2606,5.171,9.5559,-0.6047,0.3728,-0.5919,2.3282,-0.3454,10.3455,55
0.0527,-0.108,0.977,-0.7638,1.2606,5.171,9.5559,-0.6047,0.3728,-0.5919,2.3282,-0.3454,10.3455,55
0.0593,-0.12,1.0185,-0.8524,1.2315,5.2889,9.5357,-0.4162,0.2844,-0.9224,2.3255,-0.2038,10.3051,56
0.0664,-0.12,1.0185,-0.8524,1.2315,5.2889,9.5357,-0.4162,0.2844,-0.9224,2.3255,-0.2038,10.3051,57
0.0721,-0.1347,0.8939,-0.9866,1.1428,5.4199,9.4984,-0.386,0.2713,-1.2025,2.249,-0.0434,10.1696,58
0.0785,-0.1347,0.8939,-0.9866,1.1428,5.4199,9.4984,-0.386,0.2713,-1.2025,2.249,-0.0434,10.1696,59
0.0842,-0.1347,0.8939,-0.9866,1.1428,5.4199,9.4984,-0.386,0.2713,-1.2025,2.249,-0.0434,10.1696,59
0.0893,-0.2419,0.5659,-1.1822,1.0143,5.5674,9.5266,-0.573,0.3377,-1.4516,2.1232,0.0652,10.0529,60
0.0924,-0.2419,0.5659,-1.1822,1.0143,5.5674,9.5266,-0.573,0.3377,-1.4516,2.1232,0.0652,10.0529,61
0.0951,-0.4649,0.0437,-1.4451,0.8793,5.7007,9.6681,-0.9428,0.4374,-1.6846,1.9804,0.0694,10.0335,62
0.0968,-0.4649,0.0437,-1.4451,0.8793,5.7007,9.6681,-0.9428,0.4374,-1.6846,1.9804,0.0694,10.0335,63
0.0976,-0.7121,-0.5562,-1.7457,0.7934,5.7779,9.9496,-1.3846,0.4808,-1.8825,1.852,-0.0495,10.1425,63
0.0982,-0.7121,-0.5562,-1.7457,0.7934,5.7779,9.9496,-1.3846,0.4808,-1.8825,1.852,-0.0495,10.1425,64
0.1,-0.9103,-1.0537,-2.0313,0.7963,5.7961,10.3346,-1.7802,0.396,-2.0254,1.7556,-0.2725,10.3867,65
0.1026,-0.9103,-1.0537,-2.0313,0.7963,5.7961,10.3346,-1.7802,0.396,-2.0254,1.7556,-0.2725,10.3867,66
0.1054,-1.0626,-1.3726,-2.2258,0.8392,5.7768,10.7459,-2.0741,0.1617,-2.1194,1.6777,-0.5506,10.7602,66
0.108,-1.0626,-1.3726,-2.2258,0.8392,5.7768,10.7459,-2.0741,0.1617,-2.1194,1.6777,-0.5506,10.7602,67
0.11,-1.177,-1.6213,-2.2958,0.8139,5.7492,11.1688,-2.2921,-0.2168,-2.1767,1.6241,-0.865,11.2489,68
0.1102,-1.2521,-1.9161,-2.298,0.7059,5.7225,11.593,-2.4303,-0.6707,-2.23,1.6166,-1.2492,11.7828,69
0.11,-1.2521,-1.9161,-2.298,0.7059,5.7225,11.593,-2.4303,-0.6707,-2.23,1.6166,-1.2492,11.7828,70
0.1094,-1.2645,-2.2142,-2.2856,0.5847,5.6466,11.9464,-2.4029,-1.1191,-2.3282,1.6258,-1.6956,12.2566,70
0.1066,-1.2645,-2.2142,-2.2856,0.5847,5.6466,11.9464,-2.4029,-1.1191,-2.3282,1.6258,-1.6956,12.2566,71
0.1013,-1.2645,-2.2142,-2.2856,0.5847,5.6466,11.9464,-2.4029,-1.1191,-2.3282,1.6258,-1.6956,12.2566,72
0.0938,-1.1889,-2.4507,-2.2669,0.4886,5.497,12.2095,-2.1606,-1.5345,-2.4677,1.6459,-2.1332,12.6123,73
0.0823,-1.0686,-2.6083,-2.246,0.4501,5.3046,12.3669,-1.723,-1.8483,-2.6079,1.7434,-2.4961,12.7994,73
0.0704,-1.0686,-2.6083,-2.246,0.4501,5.3046,12.3669,-1.723,-1.8483,-2.6079,1.7434,-2.4961,12.7994,74
0.0547,-0.9916,-2.5884,-2.202,0.5082,5.063,12.2993,-1.1051,-2.035,-2.7562,1.9052,-2.7253,12.7092,75
0.0344,-0.9916,-2.5884,-2.202,0.5082,5.063,12.2993,-1.1051,-2.035,-2.7562,1.9052,-2.7253,12.7092,76
0.0152,-1.0393,-2.261,-2.0729,0.6185,4.7548,11.9169,-0.326,-2.1663,-2.9715,2.0211,-2.7772,12.2353,77
-0.0037,-1.0393,-2.261,-2.0729,0.6185,4.7548,11.9169,-0.326,-2.1663,-2.9715,2.0211,-2.7772,12.2353,77
-0.0238,-1.2568,-1.6917,-1.8224,0.6444,4.3879,11.2616,0.471,-2.1429,-3.2968,2.0355,-2.6649,11.3858,78
-0.0458,-1.2568,-1.6917,-1.8224,0.6444,4.3879,11.2616,0.471,-2.1429,-3.2968,2.0355,-2.6649,11.3858,79
-0.0686,-1.6017,-1.2066,-1.524,0.4741,3.9755,10.4836,1.0279,-1.7649,-3.7096,1.9526,-2.463,10.3702,80
-0.0878,-1.6017,-1.2066,-1.524,0.4741,3.9755,10.4836,1.0279,-1.7649,-3.7096,1.9526,-2.463,10.3702,80
-0.107,-1.9194,-1.1404,-1.3754,0.1233,3.5655,9.7885,1.1702,-0.9738,-4.1099,1.7592,-2.2811,9.5234,81
-0.1276,-1.9194,-1.1404,-1.3754,0.1233,3.5655,9.7885,1.1702,-0.9738,-4.1099,1.7592,-2.2811,9.5234,82
-0.1477,-2.0157,-1.4519,-1.5523,-0.2508,3.2296,9.385,0.9129,0.0246,-4.3636,1.4631,-2.2028,9.0951,83
-0.1699,-2.0157,-1.4519,-1.5523,-0.2508,3.2296,9.385,0.9129,0.0246,-4.3636,1.4631,-2.2028,9.0951,84
-0.1907,-2.0157,-1.4519,-1.5523,-0.2508,3.2296,9.385,0.9129,0.0246,-4.3636,1.4631,-2.2028,9.0951,84
-0.21,-1.7344,-1.7936,-2.0088,-0.4381,3.0332,9.3984,0.4638,0.7795,-4.3462,1.1594,-2.2371,9.1743,85
-0.2298,-1.0622,-2.0205,-2.5565,-0.3233,3.0117,9.767,0.0973,1.0391,-4.0073,0.9853,-2.338,9.6444,86
-0.2483,-1.0622,-2.0205,-2.5565,-0.3233,3.0117,9.767,0.0973,1.0391,-4.0073,0.9853,-2.338,9.6444,87
-0.2636,-0.1845,-2.1131,-3.0631,0.0695,3.1367,10.2704,-0.0614,0.9027,-3.4383,1.0363,-2.4343,10.2,88
-0.2814,-0.1845,-2.1131,-3.0631,0.0695,3.1367,10.2704,-0.0614,0.9027,-3.4383,1.0363,-2.4343,10.2,88
-0.2945,0.6669,-1.8616,-3.452,0.6439,3.3137,10.6624,-0.0273,0.7029,-2.8103,1.3184,-2.4622,10.5571,89
-0.3069,0.6669,-1.8616,-3.452,0.6439,3.3137,10.6624,-0.0273,0.7029,-2.8103,1.3184,-2.4622,10.5571,90
-0.3184,1.3179,-1.1894,-3.6653,1.2376,3.4285,10.7917,0.1726,0.773,-2.2724,1.6983,-2.4148,10.5903,91
-0.3297,1.3179,-1.1894,-3.6653,1.2376,3.4285,10.7917,0.1726,0.773,-2.2724,1.6983,-2.4148,10.5903,91
-0.3398,1.6955,-0.3235,-3.6991,1.6594,3.4274,10.6397,0.4698,1.1414,-1.9003,1.9877,-2.3185,10.3186,92
-0.3492,1.6955,-0.3235,-3.6991,1.6594,3.4274,10.6397,0.4698,1.1414,-1.9003,1.9877,-2.3185,10.3186,93
-0.3578,1.8837,0.4968,-3.6152,1.8032,3.3369,10.2936,0.7368,1.6501,-1.68,2.101,-2.1935,9.8629,94
-0.3668,1.8837,0.4968,-3.6152,1.8032,3.3369,10.2936,0.7368,1.6501,-1.68,2.101,-2.1935,9.8629,95
-0.3752,2.0484,1.1475,-3.479,1.7164,3.2108,9.8852,0.8874,2.0834,-1.5397,2.0625,-2.0595,9.4012,95
-0.3819,2.0484,1.1475,-3.479,1.7164,3.2108,9.8852,0.8874,2.0834,-1.5397,2.0625,-2.0595,9.4012,96
-0.3882,2.3088,1.5964,-3.3118,1.5545,3.1013,9.5381,0.9292,2.2658,-1.4084,1.9415,-1.9397,9.0721,97
-0.3926,2.3088,1.5964,-3.3118,1.5545,3.1013,9.5381,0.9292,2.2658,-1.4084,1.9415,-1.9397,9.0721,98
-0.3968,2.6755,1.8835,-3.1139,1.4186,3.0651,9.3423,0.9101,2.1779,-1.2509,1.8157,-1.8523,8.9069,98
-0.3996,2.6755,1.8835,-3.1139,1.4186,3.0651,9.3423,0.9101,2.1779,-1.2509,1.8157,-1.8523,8.9069,99
-0.4003,2.6755,1.8835,-3.1139,1.4186,3.0651,9.3423,0.9101,2.1779,-1.2509,1.8157,-1.8523,8.9069,0
-0.3999,3.054,2.0317,-2.8812,1.3033,3.1446,9.3176,0.8686,1.9029,-1.0689,1.7504,-1.8094,8.8813,1
-0.3997,3.3229,1.9882,-2.6087,1.2061,3.3163,9.4122,0.8299,1.5701,-0.8713,1.7461,-1.8223,8.9617,2
-0.3993,3.4251,1.7182,-2.2853,1.1621,3.4981,9.5684,0.7988,1.2818,-0.6465,1.7499,-1.8723,9.0985,2
-0.399,3.4251,1.7182,-2.2853,1.1621,3.4981,9.5684,0.7988,1.2818,-0.6465,1.7499,-1.8723,9.0985,3
-0.3966,3.4251,1.7182,-2.2853,1.1621,3.4981,9.5684,0.7988,1.2818,-0.6465,1.7499,-1.8723,9.0985,4
-0.3899,3.3192,1.2844,-1.8777,1.1884,3.6335,9.769,0.7612,1.0581,-0.3866,1.7437,-1.918,9.2274,5
-0.3805,2.9577,0.8022,-1.3477,1.2772,3.6989,9.992,0.7068,0.8736,-0.1145,1.7222,-1.964,9.3162,6
-0.3665,2.9577,0.8022,-1.3477,1.2772,3.6989,9.992,0.7068,0.8736,-0.1145,1.7222,-1.964,9.3162,6
-0.3505,2.3827,0.3509,-0.6763,1.3974,3.6741,10.1918,0.6437,0.6763,0.1357,1.6402,-2.0477,9.4179,7
-0.3319,2.3827,0.3509,-0.6763,1.3974,3.6741,10.1918,0.6437,0.6763,0.1357,1.6402,-2.0477,9.4179,8
-0.3173,2.3827,0.3509,-0.6763,1.3974,3.6741,10.1918,0.6437,0.6763,0.1357,1.6402,-2.0477,9.4179,9
-0.304,1.7281,-0.07,0.1138,1.472,3.6041,10.351,0.4643,0.376,0.369,1.4753,-2.1724,9.6117,10
-0.2955,1.7281,-0.07,0.1138,1.472,3.6041,10.351,0.4643,0.376,0.369,1.4753,-2.1724,9.6117,10
-0.2929,1.1379,-0.445,0.9498,1.446,3.5995,10.5149,0.1818,-0.0958,0.6524,1.3016,-2.2952,9.9285,11
-0.2937,1.1379,-0.445,0.9498,1.446,3.5995,10.5149,0.1818,-0.0958,0.6524,1.3016,-2.2952,9.9285,12
-0.2961,0.7433,-0.6577,1.7156,1.3669,3.7216,10.7438,0.1208,-0.6311,1.0443,1.2406,-2.3753,10.3304,13
-0.3006,0.7433,-0.6577,1.7156,1.3669,3.7216,10.7438,0.1208,-0.6311,1.0443,1.2406,-2.3753,10.3304,14
-0.3052,0.6209,-0.6611,2.2973,1.3278,3.9427,11.0198,0.38,-1.0049,1.509,1.3321,-2.408,10.7115,14
-0.3087,0.6209,-0.6611,2.2973,1.3278,3.9427,11.0198,0.38,-1.0049,1.509,1.3321,-2.408,10.7115,15
-0.3114,0.7319,-0.5869,2.6857,1.3703,4.1843,11.2852,0.7678,-1.1834,1.9537,1.4725,-2.3945,11.0001,16
-0.3126,0.7319,-0.5869,2.6857,1.3703,4.1843,11.2852,0.7678,-1.1834,1.9537,1.4725,-2.3945,11.0001,17
-0.3121,1.002,-0.529,3.0012,1.4642,4.3917,11.5372,1.0917,-1.3608,2.356,1.5346,-2.3406,11.2295,18
-0.3113,1.002,-0.529,3.0012,1.4642,4.3917,11.5372,1.0917,-1.3608,2.356,1.5346,-2.3406,11.2295,18
-0.3076,1.002,-0.529,3.0012,1.4642,4.3917,11.5372,1.0917,-1.3608,2.356,1.5346,-2.3406,11.2295,19
-0.3007,1.3643,-0.5156,3.3808,1.5603,4.632,11.7938,1.2214,-1.6588,2.7755,1.5117,-2.2496,11.5054,20
-0.2941,1.6695,-0.5675,3.8826,1.6481,5.037,12.0729,1.1547,-2.0024,3.2439,1.4794,-2.099,11.93,21
-0.2886,1.6695,-0.5675,3.8826,1.6481,5.037,12.0729,1.1547,-2.0024,3.2439,1.4794,-2.099,11.93,22
-0.2855,1.6695,-0.5675,3.8826,1.6481,5.037,12.0729,1.1547,-2.0024,3.2439,1.4794,-2.099,11.93,22
-0.2858,1.6695,-0.5675,3.8826,1.6481,5.037,12.0729,1.1547,-2.0024,3.2439,1.4794,-2.099,11.93,23
-0.2861,1.6978,-0.5056,4.4863,1.7574,5.6385,12.4104,1.0074,-2.2247,3.7209,1.5353,-1.8692,12.4444,24
-0.2853,1.6978,-0.5056,4.4863,1.7574,5.6385,12.4104,1.0074,-2.2247,3.7209,1.5353,-1.8692,12.4444,25
-0.2813,1.3024,-0.0216,5.1202,1.9245,6.307,12.7184,0.9608,-2.1814,4.0969,1.7307,-1.5649,12.7658,26
-0.273,1.3024,-0.0216,5.1202,1.9245,6.307,12.7184,0.9608,-2.1814,4.0969,1.7307,-1.5649,12.7658,26
-0.2596,0.4155,0.8186,5.6958,2.0831,6.7934,12.6709,1.1398,-1.9053,4.2531,1.925,-1.198,12.5492,27
-0.2427,0.4155,0.8186,5.6958,2.0831,6.7934,12.6709,1.1398,-1.9053,4.2531,1.925,-1.198,12.5492,28
-0.227,-0.8649,1.6651,6.1801,2.0719,6.9018,12.0184,1.4501,-1.639,4.1987,1.8991,-0.7621,11.7074,29
-0.2124,-0.8649,1.6651,6.1801,2.0719,6.9018,12.0184,1.4501,-1.639,4.1987,1.8991,-0.7621,11.7074,30
-0.1987,-2.1435,2.4743,6.5821,1.8116,6.6863,10.9097,1.596,-1.5871,4.0843,1.635,-0.2827,10.5656,30
-0.1875,-2.1435,2.4743,6.5821,1.8116,6.6863,10.9097,1.596,-1.5871,4.0843,1.635,-0.2827,10.5656,31
-0.1789,-3.095,3.1389,6.8246,1.2846,6.3714,9.7439,1.3788,-1.6753,4.0652,1.2858,0.1448,9.6206,32
-0.1714,-3.095,3.1389,6.8246,1.2846,6.3714,9.7439,1.3788,-1.6753,4.0652,1.2858,0.1448,9.6206,33
-0.165,-3.095,3.1389,6.8246,1.2846,6.3714,9.7439,1.3788,-1.6753,4.0652,1.2858,0.1448,9.6206,34
-0.1588,-3.5836,3.3471,6.7479,0.5618,6.1159,8.9107,0.8292,-1.6925,4.2058,1.0201,0.4167,9.1858,34
-0.1525,-3.5836,3.3471,6.7479,0.5618,6.1159,8.9107,0.8292,-1.6925,4.2058,1.0201,0.4167,9.1858,35
-0.1452,-3.4568,3.2016,6.2527,-0.082,5.9532,8.6404,0.1302,-1.511,4.4641,0.9682,0.4694,9.2503,36
-0.1368,-3.4568,3.2016,6.2527,-0.082,5.9532,8.6404,0.1302,-1.511,4.4641,0.9682,0.4694,9.2503,37
-0.1274,-2.7724,2.9246,5.3863,-0.3845,5.8366,8.8679,-0.4791,-1.0883,4.7404,1.1546,0.3139,9.6064,38
-0.1155,-2.7724,2.9246,5.3863,-0.3845,5.8366,8.8679,-0.4791,-1.0883,4.7404,1.1546,0.3139,9.6064,38
-0.1051,-1.8602,2.5167,4.3099,-0.3011,5.6913,9.2794,-0.8642,-0.4444,4.9645,1.5243,0.0625,10.0041,39
-0.0958,-1.8602,2.5167,4.3099,-0.3011,5.6913,9.2794,-0.8642,-0.4444,4.9645,1.5243,0.0625,10.0041,40
-0.0869,-1.0862,2.0206,3.1954,0.0297,5.526,9.5949,-1.0117,0.3705,5.0865,1.9651,-0.1476,10.2497,41
-0.0794,-1.0862,2.0206,3.1954,0.0297,5.526,9.5949,-1.0117,0.3705,5.0865,1.9651,-0.1476,10.2497,42
-0.0715,-0.6476,1.6611,2.1731,0.3647,5.422,9.6804,-0.9729,1.2575,5.032,2.3133,-0.2446,10.2683,42
-0.0639,-0.6476,1.6611,2.1731,0.3647,5.422,9.6804,-0.9729,1.2575,5.032,2.3133,-0.2446,10.2683,43
-0.0564,-0.4509,1.6286,1.331,0.5183,5.3897,9.5315,-0.8698,2.0524,4.7355,2.4735,-0.2211,10.0982,44
-0.0489,-0.4509,1.6286,1.331,0.5183,5.3897,9.5315,-0.8698,2.0524,4.7355,2.4735,-0.2211,10.0982,45
-0.0415,-0.3324,1.7397,0.6617,0.509,5.3706,9.2577,-0.8343,2.6096,4.2049,2.4502,-0.1334,9.8606,46
-0.0357,-0.3324,1.7397,0.6617,0.509,5.3706,9.2577,-0.8343,2.6096,4.2049,2.4502,-0.1334,9.8606,46
-0.0295,-0.2262,1.7412,0.1063,0.4688,5.3226,9.0072,-1.0428,2.8232,3.5334,2.3085,-0.0804,9.6768,47
-0.0251,-0.2262,1.7412,0.1063,0.4688,5.3226,9.0072,-1.0428,2.8232,3.5334,2.3085,-0.0804,9.6768,48
-0.0206,-0.0862,1.6805,-0.3145,0.4811,5.2386,8.899,-1.4456,2.655,2.8258,2.1434,-0.1256,9.6139,49
-0.0161,-0.0862,1.6805,-0.3145,0.4811,5.2386,8.899,-1.4456,2.655,2.8258,2.1434,-0.1256,9.6139,50
-0.0112,0.0829,1.676,-0.5533,0.5456,5.1599,8.9662,-1.6439,2.1835,2.1403,2.0484,-0.2519,9.7048,50
-0.0057,0.0829,1.676,-0.5533,0.5456,5.1599,8.9662,-1.6439,2.1835,2.1403,2.0484,-0.2519,9.7048,51
-0.0007,0.1979,1.6845,-0.65,0.6203,5.1476,9.163,-1.5126,1.5684,1.4774,2.0909,-0.384,9.9135,52
0.0043,0.1979,1.6845,-0.65,0.6203,5.1476,9.163,-1.5126,1.5684,1.4774,2.0909,-0.384,9.9135,53
0.0106,0.1853,1.6183,-0.7021,0.6658,5.2122,9.4036,-1.2391,0.9934,0.8008,2.256,-0.4663,10.1424,54
0.017,0.1853,1.6183,-0.7021,0.6658,5.2122,9.4036,-1.2391,0.9934,0.8008,2.256,-0.4663,10.1424,54
0.0245,0.0462,1.4841,-0.7954,0.6829,5.3184,9.5989,-0.9491,0.599,0.0885,2.4575,-0.4785,10.3242,55
0.0347,0.0462,1.4841,-0.7954,0.6829,5.3184,9.5989,-0.9491,0.599,0.0885,2.4575,-0.4785,10.3242,56
0.0431,-0.1503,1.3101,-0.9716,0.702,5.4198,9.67,-0.705,0.4221,-0.6313,2.5977,-0.4078,10.3992,57
0.0516,-0.3247,1.0786,-1.2211,0.7231,5.4861,9.5914,-0.5507,0.3739,-1.2865,2.5964,-0.2633,10.3171,58
0.0608,-0.3247,1.0786,-1.2211,0.7231,5.4861,9.5914,-0.5507,0.3739,-1.2865,2.5964,-0.2633,10.3171,58
0.07,-0.4552,0.7545,-1.5065,0.7248,5.5282,9.4471,-0.5359,0.3548,-1.811,2.4343,-0.0956,10.1084,59
0.0806,-0.4552,0.7545,-1.5065,0.7248,5.5282,9.4471,-0.5359,0.3548,-1.811,2.4343,-0.0956,10.1084,60
0.089,-0.5819,0.2937,-1.7963,0.7,5.5559,9.3563,-0.6955,0.3436,-2.1811,2.1661,0.0143,9.8703,61
0.0965,-0.5819,0.2937,-1.7963,0.7,5.5559,9.3563,-0.6955,0.3436,-2.1811,2.1661,0.0143,9.8703,62
0.1031,-0.7418,-0.3272,-2.0704,0.6484,5.5601,9.3958,-1.0153,0.3243,-2.417,1.869,0.0111,9.7369,62
0.1071,-0.7418,-0.3272,-2.0704,0.6484,5.5601,9.3958,-1.0153,0.3243,-2.417,1.869,0.0111,9.7369,63
0.1091,-0.8944,-1.0327,-2.314,0.6009,5.5435,9.5875,-1.4277,0.2594,-2.5468,1.6169,-0.1126,9.8152,64
0.1098,-0.9611,-1.6521,-2.52,0.6321,5.5187,9.8883,-1.8299,0.1201,-2.5817,1.4721,-0.3222,10.0877,65
0.1114,-0.9611,-1.6521,-2.52,0.6321,5.5187,9.8883,-1.8299,0.1201,-2.5817,1.4721,-0.3222,10.0877,66
0.1136,-0.91,-2.036,-2.6646,0.7451,5.5116,10.2554,-2.1405,-0.1384,-2.55,1.4463,-0.5786,10.4992,66
0.1169,-0.91,-2.036,-2.6646,0.7451,5.5116,10.2554,-2.1405,-0.1384,-2.55,1.4463,-0.5786,10.4992,67
0.1208,-0.91,-2.036,-2.6646,0.7451,5.5116,10.2554,-2.1405,-0.1384,-2.55,1.4463,-0.5786,10.4992,68
0.1223,-0.7432,-2.2242,-2.7063,0.8101,5.542,10.7049,-2.3629,-0.5649,-2.5118,1.5166,-0.9033,11.0891,69
0.1217,-0.5103,-2.3973,-2.6881,0.7318,5.5926,11.2409,-2.493,-1.042,-2.5486,1.6622,-1.3612,11.8349,70
0.1214,-0.5103,-2.3973,-2.6881,0.7318,5.5926,11.2409,-2.493,-1.042,-2.5486,1.6622,-1.3612,11.8349,70
0.1201,-0.5103,-2.3973,-2.6881,0.7318,5.5926,11.2409,-2.493,-1.042,-2.5486,1.6622,-1.3612,11.8349,71
0.1156,-0.2734,-2.6244,-2.718,0.549,5.5995,11.8165,-2.4325,-1.3571,-2.7275,1.8127,-1.945,12.5743,72
0.1076,-0.0559,-2.8734,-2.8272,0.3578,5.5166,12.3612,-2.1037,-1.4884,-3.0146,1.8983,-2.5426,13.1684,73
0.0968,-0.0559,-2.8734,-2.8272,0.3578,5.5166,12.3612,-2.1037,-1.4884,-3.0146,1.8983,-2.5426,13.1684,74
0.0839,0.065,-3.0405,-2.9592,0.2476,5.3566,12.7327,-1.4763,-1.5321,-3.326,1.9655,-3.0333,13.4795,74
0.0672,0.065,-3.0405,-2.9592,0.2476,5.3566,12.7327,-1.4763,-1.5321,-3.326,1.9655,-3.0333,13.4795,75
0.05,-0.0226,-2.9074,-3.0104,0.2289,5.1186,12.7447,-0.5114,-1.5093,-3.6763,2.0382,-3.3212,13.2961,76
0.0293,-0.0226,-2.9074,-3.0104,0.2289,5.1186,12.7447,-0.5114,-1.5093,-3.6763,2.0382,-3.3212,13.2961,77
0.0089,-0.3651,-2.3772,-2.8888,0.2286,4.7886,12.2853,0.6611,-1.337,-4.1313,2.0364,-3.3427,12.5228,78
-0.0121,-0.3651,-2.3772,-2.8888,0.2286,4.7886,12.2853,0.6611,-1.337,-4.1313,2.0364,-3.3427,12.5228,78
-0.0333,-0.3651,-2.3772,-2.8888,0.2286,4.7886,12.2853,0.6611,-1.337,-4.1313,2.0364,-3.3427,12.5228,79
-0.0611,-0.9064,-1.6352,-2.6072,0.1605,4.3965,11.4095,1.66,-0.9373,-4.666,1.9041,-3.0967,11.3584,80
-0.084,-1.4769,-1.1037,-2.3391,-0.0466,4.0103,10.3936,2.1468,-0.3091,-5.1629,1.6189,-2.6973,10.1778,81
-0.1047,-1.4769,-1.1037,-2.3391,-0.0466,4.0103,10.3936,2.1468,-0.3091,-5.1629,1.6189,-2.6973,10.1778,82
-0.1254,-1.8468,-1.162,-2.325,-0.3638,3.6753,9.5948,2.0468,0.4206,-5.4844,1.2034,-2.3492,9.3184,82
-0.1459,-1.8468,-1.162,-2.325,-0.3638,3.6753,9.5948,2.0468,0.4206,-5.4844,1.2034,-2.3492,9.3184,83
-0.1773,-1.7689,-1.6839,-2.6188,-0.6027,3.4205,9.2493,1.5261,0.9397,-5.5082,0.7859,-2.1672,8.9663,84
-0.1987,-1.7689,-1.6839,-2.6188,-0.6027,3.4205,9.2493,1.5261,0.9397,-5.5082,0.7859,-2.1672,8.9663,85
-0.2188,-1.1641,-2.2625,-3.08,-0.5665,3.3167,9.3951,0.8939,1.0361,-5.1766,0.5541,-2.1213,9.123,86
-0.2347,-1.1641,-2.2625,-3.08,-0.5665,3.3167,9.3951,0.8939,1.0361,-5.1766,0.5541,-2.1213,9.123,86
-0.2497,-0.2589,-2.6553,-3.5826,-0.2167,3.3888,9.8524,0.4208,0.8238,-4.5592,0.6249,-2.1412,9.5788,87
-0.2642,-0.2589,-2.6553,-3.5826,-0.2167,3.3888,9.8524,0.4208,0.8238,-4.5592,0.6249,-2.1412,9.5788,88
-0.2765,0.6692,-2.6276,-4.0233,0.3562,3.5211,10.3387,0.1956,0.5765,-3.805,0.9362,-2.1793,10.0196,89
-0.2876,0.6692,-2.6276,-4.0233,0.3562,3.5211,10.3387,0.1956,0.5765,-3.805,0.9362,-2.1793,10.0196,90
-0.2979,1.4439,-2.0785,-4.2871,0.9843,3.5784,10.6416,0.202,0.5317,-3.0599,1.3195,-2.2223,10.2303,90
-0.3082,1.4439,-2.0785,-4.2871,0.9843,3.5784,10.6416,0.202,0.5317,-3.0599,1.3195,-2.2223,10.2303,91
-0.3177,1.9426,-1.2532,-4.3218,1.462,3.543,10.6803,0.3795,0.7701,-2.4464,1.6104,-2.2518,10.1775,92
-0.327,1.9426,-1.2532,-4.3218,1.462,3.543,10.6803,0.3795,0.7701,-2.4464,1.6104,-2.2518,10.1775,93
-0.3356,2.1687,-0.4382,-4.1706,1.6989,3.4632,10.4981,0.5998,1.1811,-1.9879,1.7235,-2.2191,9.9322,94
-0.3449,2.1687,-0.4382,-4.1706,1.6989,3.4632,10.4981,0.5998,1.1811,-1.9879,1.7235,-2.2191,9.9322,94
-0.3536,2.2727,0.2622,-3.9115,1.7509,3.3834,10.203,0.7377,1.5796,-1.593,1.716,-2.1072,9.5883,95
-0.3604,2.2727,0.2622,-3.9115,1.7509,3.3834,10.203,0.7377,1.5796,-1.593,1.716,-2.1072,9.5883,96
-0.369,2.4053,0.8402,-3.6055,1.6873,3.352,9.9134,0.7513,1.83,-1.1971,1.697,-1.9705,9.2878,97
-0.375,2.4053,0.8402,-3.6055,1.6873,3.352,9.9134,0.7513,1.83,-1.1971,1.697,-1.9705,9.2878,98
-0.3808,2.4053,0.8402,-3.6055,1.6873,3.352,9.9134,0.7513,1.83,-1.1971,1.697,-1.9705,9.2878,98
-0.3848,2.5742,1.2298,-3.2769,1.5543,3.3954,9.7348,0.6749,1.8955,-0.8338,1.7192,-1.8608,9.1261,99
-0.3865,2.5742,1.2298,-3.2769,1.5543,3.3954,9.7348,0.6749,1.8955,-0.8338,1.7192,-1.8608,9.1261,0
-0.3865,2.6642,1.3473,-2.8756,1.411,3.51,9.7069,0.5532,1.8166,-0.5636,1.7721,-1.7852,9.0825,1
-0.3861,2.6642,1.3473,-2.8756,1.411,3.51,9.7069,0.5532,1.8166,-0.5636,1.7721,-1.7852,9.0825,2
-0.3858,2.5262,1.1828,-2.3538,1.3164,3.6638,9.7941,0.4162,1.6644,-0.3934,1.815,-1.7491,9.1088,2
-0.3851,2.5262,1.1828,-2.3538,1.3164,3.6638,9.7941,0.4162,1.6644,-0.3934,1.815,-1.7491,9.1088,3
-0.3832,2.0869,0.8506,-1.7357,1.3037,3.7822,9.9232,0.2913,1.4935,-0.2758,1.7943,-1.7731,9.1579,4
-0.3761,1.4357,0.5418,-1.0396,1.36,3.7974,10.0167,0.2041,1.3107,-0.1495,1.6785,-1.862,9.205,5
-0.3664,1.4357,0.5418,-1.0396,1.36,3.7974,10.0167,0.2041,1.3107,-0.1495,1.6785,-1.862,9.205,5
-0.3562,0.7512,0.3322,-0.2521,1.4293,3.6928,10.0268,0.1705,1.0353,0.0289,1.4937,-1.9861,9.2688,6
-0.3419,0.7512,0.3322,-0.2521,1.4293,3.6928,10.0268,0.1705,1.0353,0.0289,1.4937,-1.9861,9.2688,7
-0.3268,0.1986,0.1722,0.5889,1.4669,3.5249,9.9823,0.188,0.5796,0.2753,1.3097,-2.1155,9.3755,8
-0.3115,0.1986,0.1722,0.5889,1.4669,3.5249,9.9823,0.188,0.5796,0.2753,1.3097,-2.1155,9.3755,8
-0.2993,-0.1201,0.0125,1.3738,1.4513,3.4108,9.972,0.2477,-0.0046,0.6032,1.2017,-2.2301,9.5464,9
-0.2884,-0.1201,0.0125,1.3738,1.4513,3.4108,9.972,0.2477,-0.0046,0.6032,1.2017,-2.2301,9.5464,10
-0.2827,-0.1817,-0.1421,2.0031,1.382,3.4243,10.066,0.3397,-0.6011,1.0262,1.2109,-2.3148,9.8065,11
-0.2816,-0.1817,-0.1421,2.0031,1.382,3.4243,10.066,0.3397,-0.6011,1.0262,1.2109,-2.3148,9.8065,11
-0.2833,0.0099,-0.241,2.4257,1.2779,3.5464,10.2799,0.4571,-1.0912,1.5185,1.3396,-2.3754,10.1496,12
-0.2858,0.0099,-0.241,2.4257,1.2779,3.5464,10.2799,0.4571,-1.0912,1.5185,1.3396,-2.3754,10.1496,13
-0.2894,0.0099,-0.241,2.4257,1.2779,3.5464,10.2799,0.4571,-1.0912,1.5185,1.3396,-2.3754,10.1496,14
-0.2937,0.4056,-0.2382,2.6421,1.177,3.7423,10.582,0.6008,-1.3727,1.9895,1.5465,-2.4236,10.4887,15
-0.2993,0.4056,-0.2382,2.6421,1.177,3.7423,10.582,0.6008,-1.3727,1.9895,1.5465,-2.4236,10.4887,15
-0.3049,0.8736,-0.1634,2.7311,1.1206,3.9702,10.9278,0.7387,-1.4679,2.3421,1.7344,-2.4592,10.744,16
-0.3086,0.8736,-0.1634,2.7311,1.1206,3.9702,10.9278,0.7387,-1.4679,2.3421,1.7344,-2.4592,10.744,17
-0.3096,1.2832,-0.1093,2.8114,1.0991,4.1832,11.2887,0.7845,-1.5064,2.5821,1.8057,-2.4821,10.9804,18
-0.307,1.2832,-0.1093,2.8114,1.0991,4.1832,11.2887,0.7845,-1.5064,2.5821,1.8057,-2.4821,10.9804,18
-0.3017,1.5881,-0.1191,2.9684,1.0854,4.432,11.6541,0.6779,-1.5852,2.8117,1.7472,-2.4716,11.3291,19
-0.2946,1.5881,-0.1191,2.9684,1.0854,4.432,11.6541,0.6779,-1.5852,2.8117,1.7472,-2.4716,11.3291,20
-0.2863,1.7845,-0.1891,3.2409,1.0924,4.8289,12.0354,0.4631,-1.6846,3.107,1.6394,-2.3821,11.8416,21
-0.2773,1.8048,-0.3105,3.6106,1.128,5.4057,12.4635,0.2481,-1.6869,3.4496,1.5832,-2.2191,12.4537,21
-0.2742,1.8048,-0.3105,3.6106,1.128,5.4057,12.4635,0.2481,-1.6869,3.4496,1.5832,-2.2191,12.4537,22
-0.2754,1.5307,-0.3832,3.9989,1.1865,6.0607,12.89,0.1555,-1.5028,3.7404,1.6449,-2.0257,12.9922,23
-0.2771,1.5307,-0.3832,3.9989,1.1865,6.0607,12.89,0.1555,-1.5028,3.7404,1.6449,-2.0257,12.9922,24
-0.279,0.9289,-0.1583,4.3411,1.3066,6.6003,13.1257,0.2789,-1.1668,3.8562,1.8082,-1.7958,13.2062,24
-0.2761,0.9289,-0.1583,4.3411,1.3066,6.6003,13.1257,0.2789,-1.1668,3.8562,1.8082,-1.7958,13.2062,25
-0.2697,0.038,0.4121,4.6147,1.5111,6.857,12.9365,0.6189,-0.8021,3.7515,1.935,-1.5024,12.8579,26
-0.2576,0.038,0.4121,4.6147,1.5111,6.857,12.9365,0.6189,-0.8021,3.7515,1.935,-1.5024,12.8579,27
-0.2433,-1.051,1.139,4.8639,1.7027,6.7693,12.1859,1.0801,-0.5739,3.4905,1.8764,-1.1342,11.9251,27
-0.23,-1.051,1.139,4.8639,1.7027,6.7693,12.1859,1.0801,-0.5739,3.4905,1.8764,-1.1342,11.9251,28
-0.2108,-2.131,1.9991,5.1882,1.707,6.4145,11.0072,1.4546,-0.6645,3.2028,1.6123,-0.6856,10.7211,29
-0.1981,-2.131,1.9991,5.1882,1.707,6.4145,11.0072,1.4546,-0.6645,3.2028,1.6123,-0.6856,10.7211,30
-0.1851,-3.0089,2.7114,5.5565,1.4094,6.0005,9.7653,1.4919,-1.2072,3.0287,1.253,-0.2044,9.681,31
-0.176,-3.0089,2.7114,5.5565,1.4094,6.0005,9.7653,1.4919,-1.2072,3.0287,1.253,-0.2044,9.681,31
-0.1678,-3.5645,2.8719,5.7734,0.8477,5.7437,8.8241,1.1122,-1.9194,3.041,0.9385,0.1967,9.0929,32
-0.1619,-3.5645,2.8719,5.7734,0.8477,5.7437,8.8241,1.1122,-1.9194,3.041,0.9385,0.1967,9.0929,33
-0.1566,-3.6771,2.5512,5.6423,0.1894,5.7164,8.428,0.4506,-2.2225,3.2244,0.7702,0.3978,9.0441,34
-0.1508,-3.6771,2.5512,5.6423,0.1894,5.7164,8.428,0.4506,-2.2225,3.2244,0.7702,0.3978,9.0441,34
-0.1439,-3.291,2.0375,5.1053,-0.3318,5.8061,8.5996,-0.2394,-1.9655,3.4968,0.816,0.3393,9.4298,35
-0.1369,-3.291,2.0375,5.1053,-0.3318,5.8061,8.5996,-0.2394,-1.9655,3.4968,0.816,0.3393,9.4298,36
-0.1277,-2.5165,1.625,4.2814,-0.5114,5.8333,9.117,-0.722,-1.3356,3.7629,1.0674,0.0797,9.9861,37
-0.1167,-2.5165,1.625,4.2814,-0.5114,5.8333,9.117,-0.722,-1.3356,3.7629,1.0674,0.0797,9.9861,37
-0.1035,-1.6099,1.4552,3.3483,-0.3189,5.7141,9.6623,-0.908,-0.4791,3.971,1.4474,-0.241,10.4399,38
-0.0932,-0.8744,1.4056,2.4318,0.0656,5.5256,9.9949,-0.8173,0.4695,4.0821,1.8304,-0.4858,10.633,39
-0.0834,-0.8744,1.4056,2.4318,0.0656,5.5256,9.9949,-0.8173,0.4695,4.0821,1.8304,-0.4858,10.633,40
-0.0746,-0.4861,1.3928,1.6201,0.3906,5.3781,10.0266,-0.5555,1.3201,4.0356,2.073,-0.5782,10.5397,40
-0.0634,-0.4861,1.3928,1.6201,0.3906,5.3781,10.0266,-0.5555,1.3201,4.0356,2.073,-0.5782,10.5397,41
-0.0549,-0.3388,1.535,0.9657,0.5018,5.2825,9.7989,-0.3066,1.875,3.7687,2.1332,-0.5256,10.2512,42
-0.0469,-0.3388,1.535,0.9657,0.5018,5.2825,9.7989,-0.3066,1.875,3.7687,2.1332,-0.5256,10.2512,43
-0.04,-0.2293,1.6875,0.4333,0.4091,5.2021,9.463,-0.2218,2.0525,3.2548,2.0692,-0.4077,9.9192,44
-0.0328,-0.2293,1.6875,0.4333,0.4091,5.2021,9.463,-0.2218,2.0525,3.2548,2.0692,-0.4077,9.9192,44
-0.0261,-0.0542,1.5883,-0.0266,0.2761,5.1037,9.1934,-0.3286,1.8864,2.5525,1.9549,-0.3329,9.6803,45
-0.0205,-0.0542,1.5883,-0.0266,0.2761,5.1037,9.1934,-0.3286,1.8864,2.5525,1.9549,-0.3329,9.6803,46
-0.014,-0.0542,1.5883,-0.0266,0.2761,5.1037,9.1934,-0.3286,1.8864,2.5525,1.9549,-0.3329,9.6803,47
-0.0089,0.2254,1.3682,-0.3855,0.2739,4.9946,9.0747,-0.5268,1.4594,1.7931,1.8534,-0.3538,9.6109,47
-0.0033,0.555,1.2132,-0.593,0.4055,4.9404,9.105,-0.6923,0.903,1.2309,1.8128,-0.4336,9.7012,48
0.0031,0.555,1.2132,-0.593,0.4055,4.9404,9.105,-0.6923,0.903,1.2309,1.8128,-0.4336,9.7012,49
0.0109,0.7926,1.1341,-0.6547,0.559,4.9848,9.2348,-0.7518,0.3666,0.9266,1.8401,-0.5078,9.8838,50
0.0176,0.7926,1.1341,-0.6547,0.559,4.9848,9.2348,-0.7518,0.3666,0.9266,1.8401,-0.5078,9.8838,50
0.0246,0.853,1.0613,-0.651,0.6486,5.094,9.387,-0.6721,-0.0735,0.5642,1.9193,-0.536,10.0872,51
0.0329,0.853,1.0613,-0.651,0.6486,5.094,9.387,-0.6721,-0.0735,0.5642,1.9193,-0.536,10.0872,52
0.04,0.8028,0.9048,-0.6984,0.7044,5.1851,9.4882,-0.5725,-0.3453,0.0639,2.1098,-0.4963,10.2212,53
0.048,0.8028,0.9048,-0.6984,0.7044,5.1851,9.4882,-0.5725,-0.3453,0.0639,2.1098,-0.4963,10.2212,53
0.0555,0.8028,0.9048,-0.6984,0.7044,5.1851,9.4882,-0.5725,-0.3453,0.0639,2.1098,-0.4963,10.2212,54
0.0641,0.7844,0.6709,-0.904,0.895,5.2103,9.5102,-0.5255,-0.3136,-0.3711,2.5012,-0.3807,10.2012,55
0.0709,0.8608,0.4717,-1.3095,1.3486,5.2095,9.5001,-0.4248,0.0799,-0.6377,3.0278,-0.2158,10.0517,56
0.0777,0.8608,0.4717,-1.3095,1.3486,5.2095,9.5001,-0.4248,0.0799,-0.6377,3.0278,-0.2158,10.0517,56
0.0853,0.9629,0.4257,-1.8291,1.9567,5.2649,9.5409,-0.4028,0.7576,-0.7746,3.4495,-0.0527,9.8841,57
0.0923,0.9629,0.4257,-1.8291,1.9567,5.2649,9.5409,-0.4028,0.7576,-0.7746,3.4495,-0.0527,9.8841,58
0.0989,1.1037,0.5392,-2.2845,2.404,5.4122,9.6838,-0.6854,1.5551,-0.922,3.5151,0.0554,9.791,59
0.1054,1.1037,0.5392,-2.2845,2.404,5.4122,9.6838,-0.6854,1.5551,-0.922,3.5151,0.0554,9.791,60
0.1089,1.2018,0.6781,-2.521,2.4238,5.6054,9.9161,-1.222,2.1766,-1.1951,3.1317,0.0376,9.8288,60
0.1107,1.2018,0.6781,-2.521,2.4238,5.6054,9.9161,-1.222,2.1766,-1.1951,3.1317,0.0376,9.8288,61
0.1111,0.9336,0.6593,-2.4967,2.0155,5.7839,10.1795,-1.787,2.3425,-1.5756,2.4161,-0.14,10.0216,62
0.1112,0.9336,0.6593,-2.4967,2.0155,5.7839,10.1795,-1.787,2.3425,-1.5756,2.4161,-0.14,10.0216,63
0.1115,0.3455,0.4017,-2.2838,1.3848,5.9074,10.4042,-2.1568,1.9666,-1.9452,1.6067,-0.4115,10.3274,63
0.1128,0.3455,0.4017,-2.2838,1.3848,5.9074,10.4042,-2.1568,1.9666,-1.9452,1.6067,-0.4115,10.3274,64
0.1151,-0.2315,-0.0322,-1.9902,0.7471,5.9511,10.5406,-2.2149,1.0797,-2.2137,0.9435,-0.6891,10.6683,65
0.1186,-0.2315,-0.0322,-1.9902,0.7471,5.9511,10.5406,-2.2149,1.0797,-2.2137,0.9435,-0.6891,10.6683,66
0.1226,-0.2315,-0.0322,-1.9902,0.7471,5.9511,10.5406,-2.2149,1.0797,-2.2137,0.9435,-0.6891,10.6683,66
0.126,-0.7006,-0.5876,-1.6756,0.2042,5.9371,10.625,-2.0303,-0.1619,-2.3695,0.596,-0.9376,11.0363,67
0.1279,-0.7006,-0.5876,-1.6756,0.2042,5.9371,10.625,-2.0303,-0.1619,-2.3695,0.596,-0.9376,11.0363,68
0.1283,-1.0903,-1.3002,-1.4068,-0.2138,5.9166,10.7738,-1.7815,-1.4961,-2.4522,0.6504,-1.1853,11.4602,69
0.128,-1.0903,-1.3002,-1.4068,-0.2138,5.9166,10.7738,-1.7815,-1.4961,-2.4522,0.6504,-1.1853,11.4602,69
0.1269,-1.39,-2.1811,-1.3237,-0.4627,5.8954,11.0521,-1.5423,-2.5884,-2.5586,1.0745,-1.4773,11.9178,70
0.126,-1.39,-2.1811,-1.3237,-0.4627,5.8954,11.0521,-1.5423,-2.5884,-2.5586,1.0745,-1.4773,11.9178,71
0.1238,-1.5351,-3.1105,-1.4916,-0.4615,5.8221,11.4234,-1.3259,-3.1295,-2.7774,1.6726,-1.8127,12.3973,72
0.119,-1.5351,-3.1105,-1.4916,-0.4615,5.8221,11.4234,-1.3259,-3.1295,-2.7774,1.6726,-1.8127,12.3973,73
0.1099,-1.5351,-3.1105,-1.4916,-0.4615,5.8221,11.4234,-1.3259,-3.1295,-2.7774,1.6726,-1.8127,12.3973,73
0.0974,-1.4629,-3.9059,-1.8233,-0.1789,5.6971,11.8356,-1.1417,-3.0273,-3.0701,2.2066,-2.1584,12.8587,74
0.0823,-1.2464,-4.3553,-2.1739,0.2636,5.5613,12.1696,-0.8552,-2.4636,-3.3653,2.5313,-2.4558,13.0838,75
0.0609,-1.2464,-4.3553,-2.1739,0.2636,5.5613,12.1696,-0.8552,-2.4636,-3.3653,2.5313,-2.4558,13.0838,76
0.0399,-1.0843,-4.2464,-2.3882,0.6677,5.3619,12.1872,-0.2933,-1.7327,-3.6895,2.596,-2.6264,12.7846,76
0.017,-1.0843,-4.2464,-2.3882,0.6677,5.3619,12.1872,-0.2933,-1.7327,-3.6895,2.596,-2.6264,12.7846,77
-0.0093,-1.1212,-3.5689,-2.3679,0.8788,5.0133,11.7421,0.4341,-0.9793,-4.0736,2.4168,-2.6342,11.9015,78
-0.0347,-1.1212,-3.5689,-2.3679,0.8788,5.0133,11.7421,0.4341,-0.9793,-4.0736,2.4168,-2.6342,11.9015,79
-0.0558,-1.3401,-2.6345,-2.1894,0.7915,4.5194,10.9568,0.9866,-0.2441,-4.4663,2.0501,-2.5338,10.7315,79
-0.0804,-1.3401,-2.6345,-2.1894,0.7915,4.5194,10.9568,0.9866,-0.2441,-4.4663,2.0501,-2.5338,10.7315,80
-0.1001,-1.6079,-1.9796,-2.0977,0.4029,3.9569,10.1216,1.1619,0.4432,-4.7644,1.5812,-2.4037,9.6983,81
-0.1253,-1.6079,-1.9796,-2.0977,0.4029,3.9569,10.1216,1.1619,0.4432,-4.7644,1.5812,-2.4037,9.6983,82
-0.1474,-1.6079,-1.9796,-2.0977,0.4029,3.9569,10.1216,1.1619,0.4432,-4.7644,1.5812,-2.4037,9.6983,82
-0.1677,-1.6718,-1.8695,-2.2756,-0.0617,3.4554,9.514,0.9879,0.9726,-4.9733,1.104,-2.2912,9.0846,83
-0.1883,-1.6718,-1.8695,-2.2756,-0.0617,3.4554,9.514,0.9879,0.9726,-4.9733,1.104,-2.2912,9.0846,84
-0.2097,-1.245,-1.9641,-2.6734,-0.2806,3.1624,9.3235,0.6426,1.0943,-4.9964,0.7488,-2.2383,8.9837,85
-0.2278,-1.245,-1.9641,-2.6734,-0.2806,3.1624,9.3235,0.6426,1.0943,-4.9964,0.7488,-2.2383,8.9837,85
-0.2448,-0.3451,-1.8567,-3.1313,-0.1259,3.1429,9.5646,0.3737,0.8567,-4.5452,0.6645,-2.2375,9.2724,86
-0.2583,-0.3451,-1.8567,-3.1313,-0.1259,3.1429,9.5646,0.3737,0.8567,-4.5452,0.6645,-2.2375,9.2724,87
-0.2704,0.7015,-1.4507,-3.5296,0.3156,3.3262,10.0309,0.2744,0.7162,-3.6801,0.8597,-2.2278,9.69,88
-0.2827,0.7015,-1.4507,-3.5296,0.3156,3.3262,10.0309,0.2744,0.7162,-3.6801,0.8597,-2.2278,9.69,89
-0.2944,1.557,-0.7761,-3.7825,0.9013,3.5577,10.4536,0.2497,0.925,-2.688,1.1907,-2.1749,10.0258,89
-0.3045,1.557,-0.7761,-3.7825,0.9013,3.5577,10.4536,0.2497,0.925,-2.688,1.1907,-2.1749,10.0258,90
-0.3135,2.0385,0.0919,-3.8231,1.4698,3.7149,10.6472,0.2691,1.3828,-1.7614,1.5222,-2.1001,10.1604,91
-0.3234,2.0385,0.0919,-3.8231,1.4698,3.7149,10.6472,0.2691,1.3828,-1.7614,1.5222,-2.1001,10.1604,92
-0.332,2.1507,0.9864,-3.6633,1.8166,3.7709,10.554,0.3881,1.9266,-1.0521,1.7539,-2.0242,10.0486,92
-0.3406,2.1507,0.9864,-3.6633,1.8166,3.7709,10.554,0.3881,1.9266,-1.0521,1.7539,-2.0242,10.0486,93
-0.3498,2.0375,1.72,-3.3932,1.8269,3.7565,10.2639,0.5577,2.4012,-0.5971,1.8269,-1.9361,9.7649,94
-0.3578,2.0375,1.72,-3.3932,1.8269,3.7565,10.2639,0.5577,2.4012,-0.5971,1.8269,-1.9361,9.7649,95
-0.3659,1.9035,2.2206,-3.1052,1.5973,3.7105,9.9448,0.6484,2.6905,-0.321,1.7994,-1.8465,9.4688,95
-0.3723,1.9035,2.2206,-3.1052,1.5973,3.7105,9.9448,0.6484,2.6905,-0.321,1.7994,-1.8465,9.4688,96
-0.3787,1.8773,2.5821,-2.8438,1.3004,3.6773,9.7276,0.6095,2.7654,-0.1571,1.7647,-1.7933,9.2772,97
-0.3835,1.8773,2.5821,-2.8438,1.3004,3.6773,9.7276,0.6095,2.7654,-0.1571,1.7647,-1.7933,9.2772,98
-0.3862,1.9311,2.8016,-2.5928,1.0469,3.7003,9.6663,0.4745,2.6869,-0.0915,1.7508,-1.7883,9.2043,98
-0.3877,1.9311,2.8016,-2.5928,1.0469,3.7003,9.6663,0.4745,2.6869,-0.0915,1.7508,-1.7883,9.2043,99
-0.3883,1.9349,2.6467,-2.3041,0.8933,3.7835,9.7537,0.2936,2.5203,-0.0991,1.7303,-1.8236,9.2089,0
-0.3882,1.9349,2.6467,-2.3041,0.8933,3.7835,9.7537,0.2936,2.5203,-0.0991,1.7303,-1.8236,9.2089,1
-0.3881,1.7661,2.132,-1.9331,0.8488,3.8787,9.9117,0.1291,2.2934,-0.1164,1.6546,-1.884,9.2674,2
-0.3879,1.7661,2.132,-1.9331,0.8488,3.8787,9.9117,0.1291,2.2934,-0.1164,1.6546,-1.884,9.2674,2
-0.3876,1.4069,1.5205,-1.4583,0.878,3.9206,10.0446,0.0296,2.0194,-0.0743,1.5099,-1.9643,9.3573,3
-0.3861,1.4069,1.5205,-1.4583,0.878,3.9206,10.0446,0.0296,2.0194,-0.0743,1.5099,-1.9643,9.3573,4
-0.3813,0.9367,0.9811,-0.8931,0.9335,3.8775,10.1158,-0.0048,1.7107,0.0572,1.3279,-2.0847,9.4358,5
-0.3742,0.9367,0.9811,-0.8931,0.9335,3.8775,10.1158,-0.0048,1.7107,0.0572,1.3279,-2.0847,9.4358,5
-0.3651,0.9367,0.9811,-0.8931,0.9335,3.8775,10.1158,-0.0048,1.7107,0.0572,1.3279,-2.0847,9.4358,6
-0.3537,0.458,0.5892,-0.2717,0.989,3.7483,10.1415,0.014,1.347,0.2612,1.1466,-2.2367,9.4812,7
-0.3411,0.0715,0.3525,0.371,1.0143,3.5531,10.1338,0.0923,0.8506,0.5013,0.9918,-2.3806,9.5293,8
-0.3283,0.0715,0.3525,0.371,1.0143,3.5531,10.1338,0.0923,0.8506,0.5013,0.9918,-2.3806,9.5293,8
-0.3163,-0.1351,0.2248,0.997,0.9659,3.3742,10.0869,0.2277,0.2136,0.7492,0.8812,-2.4813,9.6304,9
-0.3063,-0.1351,0.2248,0.997,0.9659,3.3742,10.0869,0.2277,0.2136,0.7492,0.8812,-2.4813,9.6304,10
-0.2978,-0.1351,0.2248,0.997,0.9659,3.3742,10.0869,0.2277,0.2136,0.7492,0.8812,-2.4813,9.6304,11
-0.2929,-0.1391,0.1188,1.546,0.8423,3.3169,10.0325,0.402,-0.4894,1.0045,0.8647,-2.5146,9.7993,12
-0.2915,-0.1391,0.1188,1.546,0.8423,3.3169,10.0325,0.402,-0.4894,1.0045,0.8647,-2.5146,9.7993,12
-0.2922,0.0524,-0.0567,1.9397,0.6862,3.4037,10.0516,0.6068,-1.1334,1.2759,0.9972,-2.4925,10.0476,13
-0.2936,0.0524,-0.0567,1.9397,0.6862,3.4037,10.0516,0.6068,-1.1334,1.2759,0.9972,-2.4925,10.0476,14
-0.2964,0.4469,-0.3222,2.1323,0.5622,3.6038,10.2028,0.8424,-1.5695,1.5409,1.225,-2.445,10.3471,15
-0.3007,0.4469,-0.3222,2.1323,0.5622,3.6038,10.2028,0.8424,-1.5695,1.5409,1.225,-2.445,10.3471,15
-0.3053,0.9717,-0.616,2.1786,0.5574,3.8779,10.4641,1.0802,-1.7805,1.757,1.4405,-2.3826,10.6152,16
-0.3082,0.9717,-0.616,2.1786,0.5574,3.8779,10.4641,1.0802,-1.7805,1.757,1.4405,-2.3826,10.6152,17
-0.3089,1.4875,-0.8917,2.2055,0.7138,4.1606,10.7968,1.2373,-1.8874,1.9183,1.5883,-2.3143,10.8604,18
-0.3084,1.4875,-0.8917,2.2055,0.7138,4.1606,10.7968,1.2373,-1.8874,1.9183,1.5883,-2.3143,10.8604,18
-0.3079,1.918,-1.1607,2.3165,0.9575,4.445,11.1928,1.2306,-1.9947,2.0737,1.6646,-2.2459,11.1971,19
-0.3057,1.918,-1.1607,2.3165,0.9575,4.445,11.1928,1.2306,-1.9947,2.0737,1.6646,-2.2459,11.1971,20
-0.3008,2.2173,-1.3672,2.5729,1.1739,4.8396,11.6477,1.049,-2.0968,2.2548,1.7042,-2.1711,11.6764,21
-0.296,2.2173,-1.3672,2.5729,1.1739,4.8396,11.6477,1.049,-2.0968,2.2548,1.7042,-2.1711,11.6764,22
-0.2943,2.271,-1.4562,2.9983,1.2966,5.415,12.1704,0.7468,-2.1363,2.4377,1.7107,-2.0807,12.2824,22
-0.2953,2.271,-1.4562,2.9983,1.2966,5.415,12.1704,0.7468,-2.1363,2.4377,1.7107,-2.0807,12.2824,23
-0.2969,1.9513,-1.4474,3.5382,1.3347,6.0874,12.7254,0.4615,-2.0728,2.5881,1.6728,-1.9556,12.9271,24
-0.2972,1.9513,-1.4474,3.5382,1.3347,6.0874,12.7254,0.4615,-2.0728,2.5881,1.6728,-1.9556,12.9271,25
-0.2962,1.2424,-1.1287,4.0859,1.3604,6.7027,13.1467,0.415,-1.9006,2.6648,1.6455,-1.7756,13.3273,25
-0.2931,1.2424,-1.1287,4.0859,1.3604,6.7027,13.1467,0.415,-1.9006,2.6648,1.6455,-1.7756,13.3273,26
-0.2853,0.2377,-0.316,4.5394,1.4111,7.0844,13.1482,0.7682,-1.6388,2.6199,1.6529,-1.5081,13.1326,27
-0.2739,0.2377,-0.316,4.5394,1.4111,7.0844,13.1482,0.7682,-1.6388,2.6199,1.6529,-1.5081,13.1326,28
-0.2588,0.2377,-0.316,4.5394,1.4111,7.0844,13.1482,0.7682,-1.6388,2.6199,1.6529,-1.5081,13.1326,28
-0.2412,-0.9445,0.6281,4.8328,1.4533,7.0653,12.4809,1.3969,-1.4081,2.4535,1.5877,-1.1333,12.2478,29
-0.2258,-2.0649,1.383,5.0055,1.3851,6.6793,11.2534,1.8827,-1.4507,2.2643,1.3618,-0.6737,10.9791,30
-0.2127,-2.0649,1.383,5.0055,1.3851,6.6793,11.2534,1.8827,-1.4507,2.2643,1.3618,-0.6737,10.9791,31
-0.2014,-2.0649,1.383,5.0055,1.3851,6.6793,11.2534,1.8827,-1.4507,2.2643,1.3618,-0.6737,10.9791,32
-0.1909,-2.8043,1.9206,5.0876,1.082,6.1917,9.9275,1.8834,-1.7429,2.193,1.0545,-0.1875,9.8187,32
-0.1824,-3.0367,2.1527,4.9916,0.5785,5.833,8.9345,1.3644,-1.9383,2.3055,0.8144,0.2112,9.1248,33
-0.1769,-3.0367,2.1527,4.9916,0.5785,5.833,8.9345,1.3644,-1.9383,2.3055,0.8144,0.2112,9.1248,34
-0.1716,-2.7848,2.1839,4.6374,0.0528,5.6761,8.5308,0.5042,-1.8264,2.5731,0.7551,0.3895,9.0068,35
-0.1644,-2.7848,2.1839,4.6374,0.0528,5.6761,8.5308,0.5042,-1.8264,2.5731,0.7551,0.3895,9.0068,35
-0.1598,-2.1519,2.1772,4.0148,-0.2949,5.6771,8.7366,-0.3796,-1.3932,2.9072,0.9058,0.2906,9.3235,36
-0.1542,-2.1519,2.1772,4.0148,-0.2949,5.6771,8.7366,-0.3796,-1.3932,2.9072,0.9058,0.2906,9.3235,37
-0.1475,-1.3635,2.1175,3.2063,-0.3042,5.6903,9.2685,-0.9914,-0.677,3.223,1.1986,0.0008,9.794,38
-0.1397,-1.3635,2.1175,3.2063,-0.3042,5.6903,9.2685,-0.9914,-0.677,3.223,1.1986,0.0008,9.794,38
-0.1316,-1.3635,2.1175,3.2063,-0.3042,5.6903,9.2685,-0.9914,-0.677,3.223,1.1986,0.0008,9.794,39
-0.1222,-0.6798,1.9661,2.3481,-0.0096,5.6082,9.7724,-1.2394,0.2243,3.485,1.548,-0.2998,10.1854,40
-0.1129,-0.6798,1.9661,2.3481,-0.0096,5.6082,9.7724,-1.2394,0.2243,3.485,1.548,-0.2998,10.1854,41
-0.1034,-0.2924,1.8537,1.5322,0.3497,5.4856,10.0272,-1.1981,1.1684,3.6491,1.8496,-0.4684,10.3642,42
-0.0944,-0.2924,1.8537,1.5322,0.3497,5.4856,10.0272,-1.1981,1.1684,3.6491,1.8496,-0.4684,10.3642,42
-0.084,-0.2204,1.8573,0.8055,0.5291,5.4064,9.967,-1.0188,1.9748,3.6306,2.0041,-0.4824,10.2954,43
-0.0749,-0.2204,1.8573,0.8055,0.5291,5.4064,9.967,-1.0188,1.9748,3.6306,2.0041,-0.4824,10.2954,44
-0.0647,-0.2871,1.8074,0.1804,0.462,5.3702,9.6761,-0.8509,2.5063,3.3692,2.0245,-0.4141,10.0646,45
-0.0563,-0.2871,1.8074,0.1804,0.462,5.3702,9.6761,-0.8509,2.5063,3.3692,2.0245,-0.4141,10.0646,45
-0.0494,-0.3283,1.6196,-0.3489,0.2957,5.3469,9.3372,-0.7984,2.7335,2.8804,1.9756,-0.3516,9.8322,46
-0.0433,-0.32,1.3601,-0.7442,0.2305,5.3058,9.1316,-0.8716,2.6466,2.2503,1.8812,-0.3663,9.7328,47
-0.0337,-0.32,1.3601,-0.7442,0.2305,5.3058,9.1316,-0.8716,2.6466,2.2503,1.8812,-0.3663,9.7328,48
-0.0288,-0.2621,1.2369,-0.9467,0.3262,5.2342,9.1182,-0.9481,2.2759,1.593,1.789,-0.4782,9.8021,48
-0.0239,-0.2621,1.2369,-0.9467,0.3262,5.2342,9.1182,-0.9481,2.2759,1.593,1.789,-0.4782,9.8021,49
-0.018,-0.171,1.3463,-0.9547,0.5029,5.164,9.239,-0.908,1.7541,0.9807,1.7769,-0.6268,9.9719,50
-0.0123,-0.171,1.3463,-0.9547,0.5029,5.164,9.239,-0.908,1.7541,0.9807,1.7769,-0.6268,9.9719,51
-0.0067,-0.1212,1.4985,-0.8581,0.6544,5.1403,9.4131,-0.7461,1.2206,0.4153,1.8806,-0.7115,10.1494,52
-0.0004,-0.1212,1.4985,-0.8581,0.6544,5.1403,9.4131,-0.7461,1.2206,0.4153,1.8806,-0.7115,10.1494,52
0.0067,-0.1848,1.5084,-0.8082,0.7215,5.1735,9.56,-0.5462,0.7604,-0.1353,2.0741,-0.6917,10.2825,53
0.0143,-0.1848,1.5084,-0.8082,0.7215,5.1735,9.56,-0.5462,0.7604,-0.1353,2.0741,-0.6917,10.2825,54
0.0219,-0.3228,1.3482,-0.9008,0.7291,5.2397,9.6278,-0.3985,0.4721,-0.6872,2.2585,-0.6062,10.3268,55
0.0341,-0.3228,1.3482,-0.9008,0.7291,5.2397,9.6278,-0.3985,0.4721,-0.6872,2.2585,-0.6062,10.3268,55
0.0431,-0.4198,1.0719,-1.1106,0.7293,5.3082,9.6095,-0.3353,0.4046,-1.2112,2.3258,-0.4858,10.2527,56
0.0515,-0.4198,1.0719,-1.1106,0.7293,5.3082,9.6095,-0.3353,0.4046,-1.2112,2.3258,-0.4858,10.2527,57
0.0614,-0.4408,0.7054,-1.358,0.7423,5.3505,9.5165,-0.3545,0.4331,-1.6509,2.2422,-0.3414,10.0768,58
0.0697,-0.4408,0.7054,-1.358,0.7423,5.3505,9.5165,-0.3545,0.4331,-1.6509,2.2422,-0.3414,10.0768,58
0.0797,-0.4319,0.2697,-1.5815,0.7578,5.3618,9.4086,-0.4607,0.4132,-1.9648,2.0425,-0.2109,9.8756,59
0.0871,-0.4476,-0.1969,-1.759,0.7599,5.364,9.3731,-0.657,0.3257,-2.1396,1.7967,-0.1556,9.7505,60
0.0922,-0.4476,-0.1969,-1.759,0.7599,5.364,9.3731,-0.657,0.3257,-2.1396,1.7967,-0.1556,9.7505,61
0.0956,-0.516,-0.6663,-1.8887,0.7623,5.3744,9.4549,-0.9215,0.2127,-2.1959,1.5657,-0.2048,9.7666,62
0.0977,-0.516,-0.6663,-1.8887,0.7623,5.3744,9.4549,-0.9215,0.2127,-2.1959,1.5657,-0.2048,9.7666,62
0.0981,-0.516,-0.6663,-1.8887,0.7623,5.3744,9.4549,-0.9215,0.2127,-2.1959,1.5657,-0.2048,9.7666,63
0.0989,-0.612,-1.0848,-1.9595,0.772,5.4061,9.6426,-1.2221,0.111,-2.185,1.3884,-0.3314,9.938,64
0.1,-0.7027,-1.3679,-1.9648,0.7663,5.4858,9.8962,-1.5049,0.1567,-2.1678,1.3011,-0.4802,10.2076,65
0.1015,-0.7027,-1.3679,-1.9648,0.7663,5.4858,9.8962,-1.5049,0.1567,-2.1678,1.3011,-0.4802,10.2076,65
0.1035,-0.7971,-1.5222,-1.9179,0.7061,5.6028,10.2041,-1.7292,0.2674,-2.1939,1.3092,-0.6253,10.5506,66
0.1064,-0.7971,-1.5222,-1.9179,0.7061,5.6028,10.2041,-1.7292,0.2674,-2.1939,1.3092,-0.6253,10.5506,67
0.1088,-0.8887,-1.7342,-1.8812,0.5344,5.7131,10.6122,-1.9426,0.0229,-2.2766,1.3845,-0.8269,11.0305,68
0.1103,-0.8887,-1.7342,-1.8812,0.5344,5.7131,10.6122,-1.9426,0.0229,-2.2766,1.3845,-0.8269,11.0305,68
0.1102,-0.9442,-2.178,-1.9564,0.2888,5.7846,11.1516,-2.1443,-0.5686,-2.4217,1.4844,-1.1892,11.6471,69
0.1099,-0.9442,-2.178,-1.9564,0.2888,5.7846,11.1516,-2.1443,-0.5686,-2.4217,1.4844,-1.1892,11.6471,70
0.1092,-0.9131,-2.744,-2.1477,0.1062,5.7628,11.7646,-2.1971,-1.1719,-2.6383,1.547,-1.7254,12.324,71
0.1039,-0.9131,-2.744,-2.1477,0.1062,5.7628,11.7646,-2.1971,-1.1719,-2.6383,1.547,-1.7254,12.324,72
0.098,-0.7444,-3.2211,-2.3512,0.0488,5.632,12.3657,-1.991,-1.6452,-2.8687,1.5782,-2.3376,12.9619,72
0.0888,-0.7444,-3.2211,-2.3512,0.0488,5.632,12.3657,-1.991,-1.6452,-2.8687,1.5782,-2.3376,12.9619,73
0.0783,-0.513,-3.5008,-2.4889,0.1132,5.4487,12.8403,-1.4961,-1.9278,-3.0391,1.6702,-2.8806,13.3612,74
0.0636,-0.513,-3.5008,-2.4889,0.1132,5.4487,12.8403,-1.4961,-1.9278,-3.0391,1.6702,-2.8806,13.3612,75
0.0441,-0.4129,-3.397,-2.5071,0.2756,5.2174,12.9855,-0.6907,-2.0066,-3.1789,1.8215,-3.2226,13.2515,75
0.0262,-0.4129,-3.397,-2.5071,0.2756,5.2174,12.9855,-0.6907,-2.0066,-3.1789,1.8215,-3.2226,13.2515,76
0.0078,-0.4129,-3.397,-2.5071,0.2756,5.2174,12.9855,-0.6907,-2.0066,-3.1789,1.8215,-3.2226,13.2515,77
-0.014,-0.5861,-2.7623,-2.3399,0.4305,4.8703,12.6158,0.3443,-1.9233,-3.3754,1.8987,-3.2963,12.4987,78
-0.0353,-1.0076,-1.8001,-1.9923,0.4413,4.3912,11.755,1.2885,-1.6189,-3.6458,1.8047,-3.105,11.288,78
-0.0578,-1.0076,-1.8001,-1.9923,0.4413,4.3912,11.755,1.2885,-1.6189,-3.6458,1.8047,-3.105,11.288,79
-0.0782,-1.4977,-0.9958,-1.6266,0.2609,3.856,10.6753,1.7861,-1.013,-3.8877,1.5486,-2.7613,10.0269,80
-0.1013,-1.4977,-0.9958,-1.6266,0.2609,3.856,10.6753,1.7861,-1.013,-3.8877,1.5486,-2.7613,10.0269,81
-0.123,-1.8242,-0.7466,-1.456,-0.0174,3.3747,9.7206,1.741,-0.1309,-3.9712,1.1791,-2.4409,9.092,82
-0.1438,-1.8242,-0.7466,-1.456,-0.0174,3.3747,9.7206,1.741,-0.1309,-3.9712,1.1791,-2.4409,9.092,82
-0.1666,-1.8242,-0.7466,-1.456,-0.0174,3.3747,9.7206,1.741,-0.1309,-3.9712,1.1791,-2.4409,9.092,83
-0.1891,-1.7911,-1.0219,-1.5418,-0.2064,3.058,9.1579,1.2889,0.7997,-3.8246,0.7946,-2.2381,8.7107,84
-0.2092,-1.343,-1.4549,-1.7911,-0.1886,2.9544,9.1297,0.6847,1.3231,-3.4197,0.5686,-2.1652,8.8885,85
-0.2283,-1.343,-1.4549,-1.7911,-0.1886,2.9544,9.1297,0.6847,1.3231,-3.4197,0.5686,-2.1652,8.8885,85
-0.2445,-0.6061,-1.7233,-2.0957,0.0269,3.0434,9.5532,0.1956,1.3065,-2.8048,0.6327,-2.2007,9.418,86
-0.2602,-0.6061,-1.7233,-2.0957,0.0269,3.0434,9.5532,0.1956,1.3065,-2.8048,0.6327,-2.2007,9.418,87
-0.2742,-0.6061,-1.7233,-2.0957,0.0269,3.0434,9.5532,0.1956,1.3065,-2.8048,0.6327,-2.2007,9.418,88
-0.2879,0.2247,-1.6228,-2.376,0.3884,3.2562,10.1368,-0.0567,1.0673,-2.1105,0.9485,-2.2756,9.9951,88
-0.3001,0.9834,-1.0506,-2.5794,0.8308,3.4623,10.5983,-0.0743,0.9543,-1.4663,1.3479,-2.3233,10.373,89
-0.3106,0.9834,-1.0506,-2.5794,0.8308,3.4623,10.5983,-0.0743,0.9543,-1.4663,1.3479,-2.3233,10.373,90
-0.3206,1.5395,-0.1502,-2.6801,1.23,3.5639,10.7914,0.1205,1.1293,-0.9583,1.6803,-2.3198,10.4509,91
-0.3319,1.5395,-0.1502,-2.6801,1.23,3.5639,10.7914,0.1205,1.1293,-0.9583,1.6803,-2.3198,10.4509,92
-0.3414,1.8455,0.7947,-2.6789,1.4294,3.5576,10.6985,0.4374,1.5118,-0.6226,1.8561,-2.2632,10.2566,92
-0.3518,1.8455,0.7947,-2.6789,1.4294,3.5576,10.6985,0.4374,1.5118,-0.6226,1.8561,-2.2632,10.2566,93
-0.3609,1.8642,1.5698,-2.6118,1.4061,3.4924,10.4002,0.712,1.9238,-0.431,1.8812,-2.1575,9.8994,94
-0.3695,1.8642,1.5698,-2.6118,1.4061,3.4924,10.4002,0.712,1.9238,-0.431,1.8812,-2.1575,9.8994,95
-0.3774,1.8642,1.5698,-2.6118,1.4061,3.4924,10.4002,0.712,1.9238,-0.431,1.8812,-2.1575,9.8994,95
-0.3856,1.7279,2.071,-2.5154,1.2608,3.4438,10.0337,0.9764,2.2418,-0.3295,1.8497,-2.0223,9.5197,96
-0.3918,1.7279,2.071,-2.5154,1.2608,3.4438,10.0337,0.9764,2.2418,-0.3295,1.8497,-2.0223,9.5197,97
-0.3982,1.7832,2.2594,-2.4047,1.0839,3.4623,9.7305,1.2626,2.4095,-0.2947,1.8283,-1.9029,9.2584,98
-0.4024,1.7832,2.2594,-2.4047,1.0839,3.4623,9.7305,1.2626,2.4095,-0.2947,1.8283,-1.9029,9.2584,98
-0.4047,2.0422,2.1587,-2.2633,0.9469,3.5393,9.5747,1.3374,2.3953,-0.3152,1.8223,-1.8359,9.1749,99
-0.4049,2.0422,2.1587,-2.2633,0.9469,3.5393,9.5747,1.3374,2.3953,-0.3152,1.8223,-1.8359,9.1749,0
-0.4047,2.2593,1.8639,-2.0455,0.8795,3.6458,9.5901,1.1827,2.2186,-0.3588,1.7941,-1.8247,9.2236,1
-0.4047,2.2593,1.8639,-2.0455,0.8795,3.6458,9.5901,1.1827,2.2186,-0.3588,1.7941,-1.8247,9.2236,2
-0.4044,2.294,1.4748,-1.7277,0.8743,3.7468,9.7276,0.9956,1.9453,-0.377,1.7041,-1.8547,9.3165,2
-0.4039,2.294,1.4748,-1.7277,0.8743,3.7468,9.7276,0.9956,1.9453,-0.377,1.7041,-1.8547,9.3165,3
-0.3986,2.0895,1.0761,-1.3107,0.9168,3.8018,9.8885,0.8627,1.6173,-0.3324,1.5564,-1.902,9.3693,4
-0.3897,2.0895,1.0761,-1.3107,0.9168,3.8018,9.8885,0.8627,1.6173,-0.3324,1.5564,-1.902,9.3693,5
-0.3781,1.6802,0.7526,-0.7876,0.9642,3.7813,9.9775,0.8013,1.2312,-0.2234,1.3668,-1.9589,9.3472,5
-0.3637,1.6802,0.7526,-0.7876,0.9642,3.7813,9.9775,0.8013,1.2312,-0.2234,1.3668,-1.9589,9.3472,6
-0.346,1.179,0.528,-0.1575,0.963,3.678,9.975,0.8046,0.7522,-0.0648,1.1309,-2.0395,9.2877,7
-0.3266,1.179,0.528,-0.1575,0.963,3.678,9.975,0.8046,0.7522,-0.0648,1.1309,-2.0395,9.2877,8
-0.3082,0.7277,0.3141,0.5395,0.8819,3.5353,9.9301,0.8645,0.1627,0.1478,0.8771,-2.1305,9.2897,8
-0.2923,0.4326,0.0212,1.2077,0.7305,3.4427,9.8854,0.9755,-0.4775,0.4323,0.7083,-2.1918,9.445,9
-0.2822,0.4326,0.0212,1.2077,0.7305,3.4427,9.8854,0.9755,-0.4775,0.4323,0.7083,-2.1918,9.445,10
-0.2784,0.3393,-0.3317,1.7363,0.5759,3.4566,9.9009,1.1146,-1.0468,0.7852,0.7412,-2.2104,9.754,11
-0.2803,0.3393,-0.3317,1.7363,0.5759,3.4566,9.9009,1.1146,-1.0468,0.7852,0.7412,-2.2104,9.754,11
-0.2828,0.3393,-0.3317,1.7363,0.5759,3.4566,9.9009,1.1146,-1.0468,0.7852,0.7412,-2.2104,9.754,12
-0.287,0.4735,-0.6658,2.0534,0.5072,3.5686,10.0486,1.2485,-1.4332,1.1616,1.0187,-2.2007,10.1259,13
-0.2923,0.8183,-0.8855,2.163,0.5795,3.7456,10.3293,1.3553,-1.5914,1.4885,1.4417,-2.1735,10.4467,14
-0.3005,0.8183,-0.8855,2.163,0.5795,3.7456,10.3293,1.3553,-1.5914,1.4885,1.4417,-2.1735,10.4467,15
-0.3084,1.264,-0.9579,2.1569,0.7743,3.9536,10.6895,1.3965,-1.5793,1.6995,1.808,-2.1398,10.6956,15
-0.3137,1.264,-0.9579,2.1569,0.7743,3.9536,10.6895,1.3965,-1.5793,1.6995,1.808,-2.1398,10.6956,16
-0.3168,1.6802,-1.0232,2.1526,1.0066,4.1872,11.0966,1.3083,-1.5455,1.8083,1.9733,-2.1092,10.9672,17
-0.3164,1.6802,-1.0232,2.1526,1.0066,4.1872,11.0966,1.3083,-1.5455,1.8083,1.9733,-2.1092,10.9672,18
-0.3131,1.6802,-1.0232,2.1526,1.0066,4.1872,11.0966,1.3083,-1.5455,1.8083,1.9733,-2.1092,10.9672,18
-0.3038,2.0094,-1.2116,2.2311,1.1993,4.5082,11.5563,1.0643,-1.6034,1.9264,1.9155,-2.0685,11.3628,19
-0.2964,2.2355,-1.3984,2.4558,1.3288,4.996,12.0957,0.6957,-1.7115,2.1689,1.7261,-2.0022,11.9437,20
-0.292,2.2355,-1.3984,2.4558,1.3288,4.996,12.0957,0.6957,-1.7115,2.1689,1.7261,-2.0022,11.9437,21
-0.2895,2.2545,-1.3863,2.8555,1.4003,5.6457,12.715,0.3184,-1.7261,2.5507,1.5501,-1.9269,12.675,21
-0.2907,2.2545,-1.3863,2.8555,1.4003,5.6457,12.715,0.3184,-1.7261,2.5507,1.5501,-1.9269,12.675,22
-0.2911,1.9275,-1.0066,3.4002,1.4531,6.328,13.2844,0.1347,-1.5725,2.954,1.4688,-1.8296,13.3393,23
-0.2897,1.9275,-1.0066,3.4002,1.4531,6.328,13.2844,0.1347,-1.5725,2.954,1.4688,-1.8296,13.3393,24
-0.2854,1.1834,-0.1944,4.0205,1.5233,6.8533,13.5228,0.3075,-1.2941,3.2192,1.4792,-1.6393,13.5739,24
-0.276,1.1834,-0.1944,4.0205,1.5233,6.8533,13.5228,0.3075,-1.2941,3.2192,1.4792,-1.6393,13.5739,25
-0.2609,-0.0084,0.7084,4.6087,1.5526,7.0521,13.1338,0.8393,-1.0095,3.2606,1.4836,-1.3102,13.0823,26
-0.242,-0.0084,0.7084,4.6087,1.5526,7.0521,13.1338,0.8393,-1.0095,3.2606,1.4836,-1.3102,13.0823,27
-0.2274,-1.4182,1.4911,5.095,1.4254,6.8753,12.0604,1.4881,-0.9407,3.1305,1.3378,-0.827,11.9275,27
-0.2124,-1.4182,1.4911,5.095,1.4254,6.8753,12.0604,1.4881,-0.9407,3.1305,1.3378,-0.827,11.9275,28
-0.1998,-2.5902,2.1376,5.4455,1.0734,6.4807,10.6338,1.8752,-1.321,2.9894,1.0377,-0.2395,10.5595,29
-0.1891,-2.5902,2.1376,5.4455,1.0734,6.4807,10.6338,1.8752,-1.321,2.9894,1.0377,-0.2395,10.5595,30
-0.18,-2.5902,2.1376,5.4455,1.0734,6.4807,10.6338,1.8752,-1.321,2.9894,1.0377,-0.2395,10.5595,31
-0.1708,-3.27,2.3696,5.578,0.5428,6.1091,9.3596,1.7811,-1.9565,2.9658,0.7312,0.2802,9.4865,31
-0.1631,-3.4082,2.1598,5.4092,-0.0306,5.8791,8.6281,1.2428,-2.272,3.0928,0.5666,0.5588,9.0031,32
-0.1558,-3.4082,2.1598,5.4092,-0.0306,5.8791,8.6281,1.2428,-2.272,3.0928,0.5666,0.5588,9.0031,33
-0.1481,-3.009,1.7996,4.94,-0.4723,5.7599,8.5326,0.4857,-2.0233,3.3188,0.6021,0.554,9.1078,34
-0.1399,-3.009,1.7996,4.94,-0.4723,5.7599,8.5326,0.4857,-2.0233,3.3188,0.6021,0.554,9.1078,34
-0.1288,-2.2058,1.5425,4.266,-0.611,5.6692,8.8498,-0.2223,-1.3812,3.5792,0.8048,0.3613,9.5448,35
-0.1188,-2.2058,1.5425,4.266,-0.611,5.6692,8.8498,-0.2223,-1.3812,3.5792,0.8048,0.3613,9.5448,36
-0.1084,-2.2058,1.5425,4.266,-0.611,5.6692,8.8498,-0.2223,-1.3812,3.5792,0.8048,0.3613,9.5448,37
-0.098,-1.2764,1.4596,3.4947,-0.4,5.5488,9.2673,-0.7355,-0.6108,3.8629,1.1257,0.1198,10.0019,37
-0.0881,-0.5082,1.5096,2.7044,0.0039,5.4269,9.5762,-1.0041,0.1209,4.1239,1.5122,-0.0757,10.2709,38
-0.0783,-0.5082,1.5096,2.7044,0.0039,5.4269,9.5762,-1.0041,0.1209,4.1239,1.5122,-0.0757,10.2709,39
-0.0685,-0.0739,1.5927,1.9536,0.3282,5.3722,9.6759,-1.0328,0.8046,4.2316,1.8606,-0.184,10.2948,40
-0.0598,-0.0739,1.5927,1.9536,0.3282,5.3722,9.6759,-1.0328,0.8046,4.2316,1.8606,-0.184,10.2948,40
-0.0501,-0.0739,1.5927,1.9536,0.3282,5.3722,9.6759,-1.0328,0.8046,4.2316,1.8606,-0.184,10.2948,41
-0.0415,0.08,1.5878,1.2725,0.4216,5.3789,9.5508,-0.9264,1.3998,4.0779,2.0682,-0.1954,10.1311,42
-0.0343,0.1704,1.484,0.6653,0.3627,5.3851,9.3035,-0.7265,1.8149,3.6756,2.1225,-0.141,9.8906,43
-0.0257,0.1704,1.484,0.6653,0.3627,5.3851,9.3035,-0.7265,1.8149,3.6756,2.1225,-0.141,9.8906,44
-0.0193,0.3163,1.2804,0.1274,0.3257,5.3399,9.0903,-0.509,1.9628,3.1164,2.0885,-0.1073,9.7063,44
-0.0112,0.3163,1.2804,0.1274,0.3257,5.3399,9.0903,-0.509,1.9628,3.1164,2.0885,-0.1073,9.7063,45
-0.0064,0.5255,1.1178,-0.3032,0.421,5.2504,9.0091,-0.4969,1.7942,2.4879,2.0396,-0.1632,9.6635,46
-0.002,0.7631,1.1761,-0.5677,0.6179,5.1766,9.0837,-0.6439,1.3921,1.8546,2.0359,-0.2868,9.7506,47
0.0028,0.7631,1.1761,-0.5677,0.6179,5.1766,9.0837,-0.6439,1.3921,1.8546,2.0359,-0.2868,9.7506,47
0.0075,0.9206,1.3619,-0.6757,0.8116,5.1663,9.2705,-0.7361,0.9311,1.2533,2.111,-0.4058,9.9014,48
0.0137,0.9206,1.3619,-0.6757,0.8116,5.1663,9.2705,-0.7361,0.9311,1.2533,2.111,-0.4058,9.9014,49
0.0187,0.9113,1.5188,-0.7111,0.9338,5.2224,9.4748,-0.7251,0.5593,0.6924,2.2415,-0.466,10.0559,50
0.0251,0.9113,1.5188,-0.7111,0.9338,5.2224,9.4748,-0.7251,0.5593,0.6924,2.2415,-0.466,10.0559,50
0.031,0.7625,1.606,-0.7683,0.9765,5.3218,9.6144,-0.6571,0.3607,0.1663,2.3641,-0.4498,10.1779,51
0.0366,0.7625,1.606,-0.7683,0.9765,5.3218,9.6144,-0.6571,0.3607,0.1663,2.3641,-0.4498,10.1779,52
0.0428,0.7625,1.606,-0.7683,0.9765,5.3218,9.6144,-0.6571,0.3607,0.1663,2.3641,-0.4498,10.1779,53
0.0493,0.5701,1.593,-0.8968,0.9685,5.4398,9.6632,-0.5823,0.3732,-0.3328,2.4302,-0.3683,10.2491,53
0.0552,0.4064,1.4407,-1.0916,0.9428,5.5482,9.6243,-0.5248,0.5153,-0.7855,2.4182,-0.2468,10.2416,54
0.0619,0.4064,1.4407,-1.0916,0.9428,5.5482,9.6243,-0.5248,0.5153,-0.7855,2.4182,-0.2468,10.2416,55
0.0673,0.4064,1.4407,-1.0916,0.9428,5.5482,9.6243,-0.5248,0.5153,-0.7855,2.4182,-0.2468,10.2416,56
0.0719,0.2854,1.1463,-1.3205,0.9213,5.6196,9.5296,-0.5179,0.6468,-1.1519,2.3329,-0.1214,10.152,56
0.0771,0.2854,1.1463,-1.3205,0.9213,5.6196,9.5296,-0.5179,0.6468,-1.1519,2.3329,-0.1214,10.152,57
0.082,0.1904,0.7579,-1.5516,0.9254,5.6513,9.448,-0.6176,0.7487,-1.4127,2.211,-0.0246,10.0305,58
0.0864,0.088,0.332,-1.7686,0.9607,5.6646,9.4396,-0.8431,0.8702,-1.5827,2.0854,0.0189,9.9399,59
0.0893,0.088,0.332,-1.7686,0.9607,5.6646,9.4396,-0.8431,0.8702,-1.5827,2.0854,0.0189,9.9399,60
0.0913,-0.048,-0.0897,-1.962,1.0054,5.6805,9.5483,-1.1425,0.9978,-1.6925,1.9679,-0.0213,9.9398,60
0.0933,-0.048,-0.0897,-1.962,1.0054,5.6805,9.5483,-1.1425,0.9978,-1.6925,1.9679,-0.0213,9.9398,61
0.0949,-0.2039,-0.4444,-2.1212,1.0563,5.7021,9.7877,-1.4427,1.041,-1.7592,1.8703,-0.1546,10.0683,62
0.0955,-0.2039,-0.4444,-2.1212,1.0563,5.7021,9.7877,-1.4427,1.041,-1.7592,1.8703,-0.1546,10.0683,63
0.0968,-0.3589,-0.6741,-2.2367,1.122,5.7275,10.1018,-1.6709,0.9275,-1.7885,1.7919,-0.3493,10.3078,63
0.0976,-0.3589,-0.6741,-2.2367,1.122,5.7275,10.1018,-1.6709,0.9275,-1.7885,1.7919,-0.3493,10.3078,64
0.0989,-0.5186,-0.7624,-2.2701,1.1674,5.7552,10.4139,-1.7847,0.661,-1.7951,1.7082,-0.5458,10.6123,65
0.1013,-0.5186,-0.7624,-2.2701,1.1674,5.7552,10.4139,-1.7847,0.661,-1.7951,1.7082,-0.5458,10.6123,66
0.1038,-0.6845,-0.7861,-2.1849,1.1052,5.7884,10.7007,-1.835,0.2586,-1.7873,1.6209,-0.7267,10.9869,66
0.1061,-0.6845,-0.7861,-2.1849,1.1052,5.7884,10.7007,-1.835,0.2586,-1.7873,1.6209,-0.7267,10.9869,67
0.1072,-0.6845,-0.7861,-2.1849,1.1052,5.7884,10.7007,-1.835,0.2586,-1.7873,1.6209,-0.7267,10.9869,68
0.1072,-0.8319,-0.9079,-2.0377,0.8796,5.8486,10.9989,-1.8907,-0.2428,-1.7917,1.5761,-0.9502,11.4405,69
0.107,-0.8319,-0.9079,-2.0377,0.8796,5.8486,10.9989,-1.8907,-0.2428,-1.7917,1.5761,-0.9502,11.4405,69
0.1067,-0.938,-1.2326,-1.9365,0.5271,5.9195,11.3345,-1.925,-0.7419,-1.8988,1.5771,-1.2683,11.9142,70
0.1049,-0.938,-1.2326,-1.9365,0.5271,5.9195,11.3345,-1.925,-0.7419,-1.8988,1.5771,-1.2683,11.9142,71
0.1008,-0.9908,-1.7563,-1.9171,0.1329,5.9316,11.6907,-1.8654,-1.1764,-2.1652,1.5649,-1.6907,12.3979,72
0.0937,-0.9908,-1.7563,-1.9171,0.1329,5.9316,11.6907,-1.8654,-1.1764,-2.1652,1.5649,-1.6907,12.3979,73
0.0807,-0.9846,-2.4438,-1.9651,-0.1922,5.8633,12.0537,-1.6519,-1.4985,-2.5139,1.5708,-2.1806,12.8811,73
0.0652,-0.9846,-2.4438,-1.9651,-0.1922,5.8633,12.0537,-1.6519,-1.4985,-2.5139,1.5708,-2.1806,12.8811,74
0.0457,-0.9862,-3.1,-2.0619,-0.3372,5.7281,12.3334,-1.1822,-1.5626,-2.8644,1.6719,-2.6327,13.1249,75
0.0232,-0.9862,-3.1,-2.0619,-0.3372,5.7281,12.3334,-1.1822,-1.5626,-2.8644,1.6719,-2.6327,13.1249,76
0.0041,-1.1336,-3.3292,-2.1069,-0.2856,5.4479,12.2885,-0.3658,-1.3855,-3.2554,1.7597,-2.9013,12.8099,76
-0.0168,-1.1336,-3.3292,-2.1069,-0.2856,5.4479,12.2885,-0.3658,-1.3855,-3.2554,1.7597,-2.9013,12.8099,77
-0.0381,-1.1336,-3.3292,-2.1069,-0.2856,5.4479,12.2885,-0.3658,-1.3855,-3.2554,1.7597,-2.9013,12.8099,78
-0.0625,-1.4509,-2.9152,-1.9712,-0.1479,4.9555,11.7829,0.6227,-1.1505,-3.7008,1.6841,-2.9187,11.9207,79
-0.0856,-1.8149,-2.0986,-1.7032,-0.1026,4.3692,10.9855,1.3727,-0.8025,-4.1097,1.4753,-2.7636,10.7931,79
-0.107,-1.8149,-2.0986,-1.7032,-0.1026,4.3692,10.9855,1.3727,-0.8025,-4.1097,1.4753,-2.7636,10.7931,80
-0.1262,-2.0959,-1.2944,-1.5214,-0.2674,3.8508,10.1725,1.6278,-0.213,-4.416,1.2072,-2.5526,9.8027,81
-0.1455,-2.0959,-1.2944,-1.5214,-0.2674,3.8508,10.1725,1.6278,-0.213,-4.416,1.2072,-2.5526,9.8027,82
-0.1664,-2.1484,-0.9029,-1.6086,-0.5641,3.4589,9.5808,1.4048,0.5011,-4.5565,0.8632,-2.3601,9.1963,82
-0.187,-2.1484,-0.9029,-1.6086,-0.5641,3.4589,9.5808,1.4048,0.5011,-4.5565,0.8632,-2.3601,9.1963,83
-0.2082,-2.1484,-0.9029,-1.6086,-0.5641,3.4589,9.5808,1.4048,0.5011,-4.5565,0.8632,-2.3601,9.1963,84
-0.2283,-1.7922,-1.1231,-2.0026,-0.7526,3.2188,9.3728,0.9056,1.062,-4.4011,0.4901,-2.2339,9.0882,85
-0.247,-0.9602,-1.4309,-2.5725,-0.6077,3.1739,9.5472,0.4323,1.2982,-3.8865,0.2974,-2.1766,9.388,85
-0.2642,-0.9602,-1.4309,-2.5725,-0.6077,3.1739,9.5472,0.4323,1.2982,-3.8865,0.2974,-2.1766,9.388,86
-0.2795,0.1316,-1.2386,-3.0984,-0.1134,3.313,9.922,0.1761,1.3088,-3.1117,0.3843,-2.1494,9.829,87
-0.2954,0.1316,-1.2386,-3.0984,-0.1134,3.313,9.922,0.1761,1.3088,-3.1117,0.3843,-2.1494,9.829,88
-0.3088,1.123,-0.5859,-3.4244,0.5331,3.5104,10.2527,0.1389,1.3207,-2.2578,0.6591,-2.1261,10.172,89
-0.3216,1.123,-0.5859,-3.4244,0.5331,3.5104,10.2527,0.1389,1.3207,-2.2578,0.6591,-2.1261,10.172,89
-0.3323,1.8035,0.3192,-3.5034,1.0857,3.6471,10.3956,0.266,1.4968,-1.5043,1.0235,-2.0945,10.2917,90
-0.3436,1.8035,0.3192,-3.5034,1.0857,3.6471,10.3956,0.266,1.4968,-1.5043,1.0235,-2.0945,10.2917,91
-0.3536,2.1441,1.199,-3.392,1.3624,3.6968,10.3352,0.5008,1.7832,-0.9667,1.3278,-2.0356,10.1507,92
-0.3645,2.1441,1.199,-3.392,1.3624,3.6968,10.3352,0.5008,1.7832,-0.9667,1.3278,-2.0356,10.1507,92
-0.3723,2.1441,1.199,-3.392,1.3624,3.6968,10.3352,0.5008,1.7832,-0.9667,1.3278,-2.0356,10.1507,93
-0.3808,2.2413,1.7857,-3.1997,1.3454,3.6757,10.1173,0.7424,2.0277,-0.6463,1.4733,-1.9458,9.8265,94
-0.3902,2.2828,2.0381,-2.9889,1.1603,3.6342,9.8254,0.8851,2.1656,-0.4789,1.5492,-1.8335,9.4564,95
-0.3966,2.2828,2.0381,-2.9889,1.1603,3.6342,9.8254,0.8851,2.1656,-0.4789,1.5492,-1.8335,9.4564,95
-0.4027,2.2828,2.0381,-2.9889,1.1603,3.6342,9.8254,0.8851,2.1656,-0.4789,1.5492,-1.8335,9.4564,96
-0.4067,2.375,2.0137,-2.7649,0.9353,3.6442,9.5693,0.8995,2.1864,-0.4223,1.6183,-1.7129,9.1649,97
-0.4092,2.432,1.7813,-2.5115,0.7575,3.7346,9.4416,0.8195,2.1135,-0.4608,1.6458,-1.6104,9.0112,98
-0.4113,2.432,1.7813,-2.5115,0.7575,3.7346,9.4416,0.8195,2.1135,-0.4608,1.6458,-1.6104,9.0112,98
-0.4122,2.432,1.7813,-2.5115,0.7575,3.7346,9.4416,0.8195,2.1135,-0.4608,1.6458,-1.6104,9.0112,99
-0.4124,2.3307,1.3965,-2.2016,0.6647,3.8666,9.4694,0.6861,1.9557,-0.5569,1.6042,-1.5439,8.9915,0
-0.4122,2.3307,1.3965,-2.2016,0.6647,3.8666,9.4694,0.6861,1.9557,-0.5569,1.6042,-1.5439,8.9915,1
-0.4111,2.0226,0.9048,-1.7995,0.6491,3.9732,9.5884,0.5404,1.6875,-0.6278,1.4809,-1.5284,9.0624,2
-0.4066,2.0226,0.9048,-1.7995,0.6491,3.9732,9.5884,0.5404,1.6875,-0.6278,1.4809,-1.5284,9.0624,2
-0.3992,2.0226,0.9048,-1.7995,0.6491,3.9732,9.5884,0.5404,1.6875,-0.6278,1.4809,-1.5284,9.0624,3
-0.3855,1.5284,0.5439,-1.2784,0.7029,4.0008,9.7035,0.4211,1.2988,-0.5965,1.2955,-1.5819,9.1425,4
-0.3715,0.9486,0.4471,-0.6402,0.7958,3.9225,9.7779,0.344,0.833,-0.4645,1.0969,-1.7135,9.191,5
-0.3575,0.9486,0.4471,-0.6402,0.7958,3.9225,9.7779,0.344,0.833,-0.4645,1.0969,-1.7135,9.191,6
-0.3417,0.405,0.3217,0.0888,0.8385,3.7649,9.8178,0.3112,0.2982,-0.2714,0.8775,-1.9052,9.2651,7
-0.3266,0.405,0.3217,0.0888,0.8385,3.7649,9.8178,0.3112,0.2982,-0.2714,0.8775,-1.9052,9.2651,7
-0.3133,0.0008,-0.0015,0.8317,0.7665,3.6224,9.8598,0.3262,-0.3688,-0.0167,0.6569,-2.0924,9.4547,8
-0.3048,0.0008,-0.0015,0.8317,0.7665,3.6224,9.8598,0.3262,-0.3688,-0.0167,0.6569,-2.0924,9.4547,9
-0.2999,-0.2053,-0.4464,1.4627,0.6231,3.6007,9.9793,0.3836,-1.1315,0.3131,0.5705,-2.2193,9.7812,10
-0.2997,-0.2053,-0.4464,1.4627,0.6231,3.6007,9.9793,0.3836,-1.1315,0.3131,0.5705,-2.2193,9.7812,11
-0.3015,-0.2031,-0.9239,1.8881,0.4918,3.7245,10.2077,0.4904,-1.8158,0.6741,0.7002,-2.2852,10.1741,11
-0.3037,-0.2031,-0.9239,1.8881,0.4918,3.7245,10.2077,0.4904,-1.8158,0.6741,0.7002,-2.2852,10.1741,12
-0.3058,-0.0087,-1.3113,2.0984,0.4352,3.923,10.489,0.6671,-2.2363,0.9814,0.9787,-2.2961,10.5074,13
-0.3077,-0.0087,-1.3113,2.0984,0.4352,3.923,10.489,0.6671,-2.2363,0.9814,0.9787,-2.2961,10.5074,14
-0.3087,0.2927,-1.5297,2.0344,0.4977,4.1225,10.7502,0.8682,-2.365,1.2007,1.2502,-2.2369,10.6978,15
-0.3087,0.2927,-1.5297,2.0344,0.4977,4.1225,10.7502,0.8682,-2.365,1.2007,1.2502,-2.2369,10.6978,15
-0.3081,0.5947,-1.6291,1.7875,0.6458,4.3118,11.0128,0.9437,-2.3636,1.3862,1.3949,-2.1368,10.845,16
-0.3067,0.8797,-1.8545,1.7386,0.781,4.5475,11.3782,0.7581,-2.3363,1.6189,1.4172,-2.0704,11.173,17
-0.3015,0.8797,-1.8545,1.7386,0.781,4.5475,11.3782,0.7581,-2.3363,1.6189,1.4172,-2.0704,11.173,18
-0.2951,1.1514,-2.2111,2.0185,0.8564,4.9291,11.8819,0.3587,-2.2397,1.9315,1.3733,-2.0457,11.7924,19
-0.2885,1.1514,-2.2111,2.0185,0.8564,4.9291,11.8819,0.3587,-2.2397,1.9315,1.3733,-2.0457,11.7924,20
-0.2832,1.2861,-2.3166,2.4883,0.9063,5.5016,12.4804,-0.032,-2.0541,2.2956,1.2974,-2.0093,12.6109,20
-0.2802,1.2861,-2.3166,2.4883,0.9063,5.5016,12.4804,-0.032,-2.0541,2.2956,1.2974,-2.0093,12.6109,21
-0.2824,1.2861,-2.3166,2.4883,0.9063,5.5016,12.4804,-0.032,-2.0541,2.2956,1.2974,-2.0093,12.6109,22
-0.2846,1.0993,-1.9676,3.0555,1.0038,6.1561,13.0402,-0.1612,-1.8298,2.6414,1.2446,-1.9037,13.3435,23
-0.2854,0.5165,-1.156,3.6473,1.162,6.7002,13.2876,0.116,-1.6114,2.8782,1.2566,-1.6735,13.5753,24
-0.2827,0.5165,-1.156,3.6473,1.162,6.7002,13.2876,0.116,-1.6114,2.8782,1.2566,-1.6735,13.5753,24
-0.2738,-0.4292,-0.0717,4.1834,1.2744,6.964,12.9618,0.7343,-1.4456,2.9299,1.2732,-1.298,13.0276,25
-0.2609,-0.4292,-0.0717,4.1834,1.2744,6.964,12.9618,0.7343,-1.4456,2.9299,1.2732,-1.298,13.0276,26
-0.2437,-1.5333,0.9938,4.5852,1.2335,6.8571,12.0206,1.4163,-1.4514,2.7943,1.2103,-0.8054,11.8587,27
-0.2277,-1.5333,0.9938,4.5852,1.2335,6.8571,12.0206,1.4163,-1.4514,2.7943,1.2103,-0.8054,11.8587,28
-0.2116,-2.4435,1.7563,4.7588,1.0021,6.486,10.7441,1.8133,-1.6844,2.5852,1.0626,-0.2764,10.5602,28
-0.1971,-2.4435,1.7563,4.7588,1.0021,6.486,10.7441,1.8133,-1.6844,2.5852,1.0626,-0.2764,10.5602,29
-0.1864,-2.9425,1.8759,4.6493,0.6037,6.0797,9.5945,1.6921,-1.9752,2.4721,0.894,0.1521,9.5987,30
-0.1792,-2.9425,1.8759,4.6493,0.6037,6.0797,9.5945,1.6921,-1.9752,2.4721,0.894,0.1521,9.5987,31
-0.1745,-2.9513,1.4734,4.334,0.1904,5.7913,8.9476,1.0415,-2.1285,2.5697,0.7992,0.3474,9.242,32
-0.1702,-2.9513,1.4734,4.334,0.1904,5.7913,8.9476,1.0415,-2.1285,2.5697,0.7992,0.3474,9.242,33
-0.166,-2.4794,1.0556,3.9169,-0.0252,5.6508,8.9183,0.1363,-2.0338,2.867,0.868,0.258,9.4741,33
-0.1608,-2.4794,1.0556,3.9169,-0.0252,5.6508,8.9183,0.1363,-2.0338,2.867,0.868,0.258,9.4741,34
-0.1537,-1.7128,0.9693,3.4539,0.0494,5.586,9.3112,-0.622,-1.6568,3.2618,1.1021,-0.0464,10.0049,35
-0.1443,-1.7128,0.9693,3.4539,0.0494,5.586,9.3112,-0.622,-1.6568,3.2618,1.1021,-0.0464,10.0049,36
-0.1323,-0.9342,1.2871,3.0125,0.3133,5.5224,9.795,-1.0126,-1.1064,3.6367,1.4222,-0.3912,10.4829,37
-0.1218,-0.9342,1.2871,3.0125,0.3133,5.5224,9.795,-1.0126,-1.1064,3.6367,1.4222,-0.3912,10.4829,37
-0.11,-0.4276,1.7334,2.6126,0.5304,5.4725,10.1032,-1.0167,-0.4677,3.8543,1.7485,-0.5913,10.6905,38
-0.1,-0.4276,1.7334,2.6126,0.5304,5.4725,10.1032,-1.0167,-0.4677,3.8543,1.7485,-0.5913,10.6905,39
-0.0896,-0.4276,1.7334,2.6126,0.5304,5.4725,10.1032,-1.0167,-0.4677,3.8543,1.7485,-0.5913,10.6905,40
-0.079,-0.3126,1.9378,2.1955,0.5425,5.4712,10.0874,-0.7341,0.2087,3.7953,1.986,-0.573,10.5756,41
-0.0684,-0.3126,1.9378,2.1955,0.5425,5.4712,10.0874,-0.7341,0.2087,3.7953,1.986,-0.573,10.5756,41
-0.0582,-0.4176,1.8336,1.7455,0.4094,5.4863,9.7646,-0.3594,0.7563,3.4444,2.0861,-0.3954,10.2212,42
-0.0476,-0.4176,1.8336,1.7455,0.4094,5.4863,9.7646,-0.3594,0.7563,3.4444,2.0861,-0.3954,10.2212,43
-0.0365,-0.5413,1.5016,1.2935,0.3071,5.4533,9.3257,-0.1178,1.0025,2.8654,2.1084,-0.1772,9.8064,44
-0.028,-0.5413,1.5016,1.2935,0.3071,5.4533,9.3257,-0.1178,1.0025,2.8654,2.1084,-0.1772,9.8064,45
-0.0212,-0.5413,1.5016,1.2935,0.3071,5.4533,9.3257,-0.1178,1.0025,2.8654,2.1084,-0.1772,9.8064,46
-0.0146,-0.6466,1.0903,0.884,0.3535,5.3634,8.9837,-0.1431,0.89,2.1558,2.14,-0.0311,9.523,46
-0.0075,-0.7575,0.8129,0.5833,0.5261,5.2639,8.8362,-0.3727,0.5475,1.4283,2.2285,0.0091,9.4433,47
-0.0019,-0.7575,0.8129,0.5833,0.5261,5.2639,8.8362,-0.3727,0.5475,1.4283,2.2285,0.0091,9.4433,48
