q,right_acc_x,right_acc_y,right_acc_z,right_ang_x,right_ang_y,right_ang_z,left_acc_x,left_acc_y,left_acc_z,left_ang_x,left_ang_y,left_ang_z,label
-0.4507,2.2939,2.8496,0.2829,1.5279,2.8847,9.4977,1.4822,2.4693,1.4364,3.7085,-1.5663,8.6817,0
-0.4526,2.2939,2.8496,0.2829,1.5279,2.8847,9.4977,1.4822,2.4693,1.4364,3.7085,-1.5663,8.6817,0
-0.4531,2.4529,3.0302,0.3534,1.415,2.9402,9.7124,1.5147,2.1971,1.16,3.582,-1.5847,8.704,0
-0.453,2.4529,3.0302,0.3534,1.415,2.9402,9.7124,1.5147,2.1971,1.16,3.582,-1.5847,8.704,1
-0.4526,2.3861,2.946,0.371,1.2818,2.9921,9.9229,1.4451,1.8016,0.9717,3.4801,-1.5933,8.7478,2
-0.4506,2.3861,2.946,0.371,1.2818,2.9921,9.9229,1.4451,1.8016,0.9717,3.4801,-1.5933,8.7478,3
-0.4463,2.3861,2.946,0.371,1.2818,2.9921,9.9229,1.4451,1.8016,0.9717,3.4801,-1.5933,8.7478,4
-0.4378,2.086,2.5315,0.3387,1.1808,3.0476,10.1003,1.2599,1.3554,0.8432,3.4072,-1.6178,8.8202,5
-0.4296,1.6357,1.8418,0.2947,1.1193,3.1034,10.3053,0.9843,0.9293,0.7329,3.3116,-1.6926,8.9813,6
-0.4151,1.6357,1.8418,0.2947,1.1193,3.1034,10.3053,0.9843,0.9293,0.7329,3.3116,-1.6926,8.9813,6
-0.4032,1.0554,0.9502,0.2159,0.974,3.186,10.574,0.6799,0.5194,0.644,3.1938,-1.7886,9.2654,7
-0.3902,1.0554,0.9502,0.2159,0.974,3.186,10.574,0.6799,0.5194,0.644,3.1938,-1.7886,9.2654,8
-0.3801,1.0554,0.9502,0.2159,0.974,3.186,10.574,0.6799,0.5194,0.644,3.1938,-1.7886,9.2654,9
-0.373,0.3843,-0.1015,0.021,0.7174,3.3193,10.8578,0.3916,0.0506,0.6053,3.155,-1.8631,9.6498,10
-0.3709,0.3843,-0.1015,0.021,0.7174,3.3193,10.8578,0.3916,0.0506,0.6053,3.155,-1.8631,9.6498,11
-0.3714,-0.2023,-1.195,-0.295,0.5296,3.4587,11.167,0.1671,-0.5013,0.6009,3.2452,-1.9515,10.0523,12
-0.3727,-0.2023,-1.195,-0.295,0.5296,3.4587,11.167,0.1671,-0.5013,0.6009,3.2452,-1.9515,10.0523,13
-0.3735,-0.5783,-2.1358,-0.6008,0.5147,3.5708,11.5152,0.0729,-1.0823,0.5439,3.356,-2.0816,10.3457,14
-0.3734,-0.5783,-2.1358,-0.6008,0.5147,3.5708,11.5152,0.0729,-1.0823,0.5439,3.356,-2.0816,10.3457,15
-0.3731,-0.8874,-2.8792,-0.6737,0.6381,3.6572,11.7906,0.067,-1.6771,0.3667,3.3189,-2.1653,10.3971,16
-0.3724,-0.8874,-2.8792,-0.6737,0.6381,3.6572,11.7906,0.067,-1.6771,0.3667,3.3189,-2.1653,10.3971,17
-0.3709,-1.3095,-3.3163,-0.3363,0.86,3.6549,11.8718,-0.0717,-2.4014,0.1301,3.0681,-2.145,10.265,18
-0.3625,-1.3095,-3.3163,-0.3363,0.86,3.6549,11.8718,-0.0717,-2.4014,0.1301,3.0681,-2.145,10.265,19
-0.3486,-1.8291,-3.5399,0.3081,1.1358,3.5275,11.7666,-0.5218,-3.3359,0.01,2.7403,-2.0931,10.3117,19
-0.331,-1.8291,-3.5399,0.3081,1.1358,3.5275,11.7666,-0.5218,-3.3359,0.01,2.7403,-2.0931,10.3117,20
-0.3115,-2.1128,-3.6249,0.8549,1.4676,3.3933,11.6115,-1.0836,-4.3388,0.1841,2.6716,-2.0668,10.7956,21
-0.296,-2.1128,-3.6249,0.8549,1.4676,3.3933,11.6115,-1.0836,-4.3388,0.1841,2.6716,-2.0668,10.7956,22
-0.2886,-1.7041,-3.0658,1.1346,1.8584,3.4584,11.5216,-1.3247,-4.794,0.6665,3.1417,-2.0154,11.5747,23
-0.2887,-1.7041,-3.0658,1.1346,1.8584,3.4584,11.5216,-1.3247,-4.794,0.6665,3.1417,-2.0154,11.5747,24
-0.29,-0.5544,-1.5797,1.436,2.2534,3.8146,11.56,-1.0758,-4.1217,1.2567,4.0688,-1.8874,12.3901,25
-0.2903,-0.5544,-1.5797,1.436,2.2534,3.8146,11.56,-1.0758,-4.1217,1.2567,4.0688,-1.8874,12.3901,26
-0.2864,0.9766,0.6316,1.8732,2.6105,4.3381,11.7383,-0.4704,-2.5629,1.6955,5.1002,-1.7091,12.9829,27
-0.2786,0.9766,0.6316,1.8732,2.6105,4.3381,11.7383,-0.4704,-2.5629,1.6955,5.1002,-1.7091,12.9829,28
-0.2665,2.2782,2.6662,2.2144,2.8081,4.8404,11.8963,0.2949,-0.7056,1.8294,5.7446,-1.4809,13.0172,29
-0.2522,2.2782,2.6662,2.2144,2.8081,4.8404,11.8963,0.2949,-0.7056,1.8294,5.7446,-1.4809,13.0172,30
-0.2391,2.776,3.1664,2.2905,2.607,5.2134,11.8561,0.9908,0.7657,1.6906,5.6133,-1.171,12.3869,31
-0.224,2.776,3.1664,2.2905,2.607,5.2134,11.8561,0.9908,0.7657,1.6906,5.6133,-1.171,12.3869,31
-0.2111,2.4334,2.0012,2.1899,1.9872,5.4206,11.6201,1.3889,1.2151,1.4555,4.8434,-0.8374,11.3896,32
-0.1988,2.4334,2.0012,2.1899,1.9872,5.4206,11.6201,1.3889,1.2151,1.4555,4.8434,-0.8374,11.3896,33
-0.1868,1.794,0.8821,2.115,1.1859,5.4408,11.2534,1.3883,0.8433,1.2812,3.9137,-0.5668,10.4283,34
-0.1742,1.794,0.8821,2.115,1.1859,5.4408,11.2534,1.3883,0.8433,1.2812,3.9137,-0.5668,10.4283,35
-0.1633,1.2742,0.9408,2.0045,0.4095,5.2981,10.767,1.0827,0.4682,1.1914,3.1917,-0.3996,9.7359,36
-0.1529,1.2742,0.9408,2.0045,0.4095,5.2981,10.767,1.0827,0.4682,1.1914,3.1917,-0.3996,9.7359,37
-0.1441,0.7679,1.1928,1.5992,-0.0788,5.0554,10.2092,0.7022,0.5148,1.1102,2.8207,-0.3517,9.3065,38
-0.1346,0.7679,1.1928,1.5992,-0.0788,5.0554,10.2092,0.7022,0.5148,1.1102,2.8207,-0.3517,9.3065,39
-0.1263,0.258,1.0653,0.9796,0.0134,4.7334,9.6974,0.3919,0.9195,1.0051,2.7478,-0.4016,8.9999,40
-0.1158,0.258,1.0653,0.9796,0.0134,4.7334,9.6974,0.3919,0.9195,1.0051,2.7478,-0.4016,8.9999,41
-0.1065,-0.0843,1.0977,0.5032,0.6598,4.3213,9.3229,0.1068,1.4546,0.9303,2.8666,-0.5021,8.7229,42
-0.0972,-0.0843,1.0977,0.5032,0.6598,4.3213,9.3229,0.1068,1.4546,0.9303,2.8666,-0.5021,8.7229,43
-0.0857,-0.2317,1.2863,0.3318,1.4842,3.8954,9.0999,-0.2207,1.8924,0.9247,3.1052,-0.5984,8.475,44
-0.0762,-0.2317,1.2863,0.3318,1.4842,3.8954,9.0999,-0.2207,1.8924,0.9247,3.1052,-0.5984,8.475,44
-0.068,-0.2335,1.3396,0.3953,2.0435,3.6155,8.9886,-0.4496,2.1379,0.941,3.3944,-0.6484,8.3241,45
-0.0587,-0.2335,1.3396,0.3953,2.0435,3.6155,8.9886,-0.4496,2.1379,0.941,3.3944,-0.6484,8.3241,46
-0.0505,-0.1748,1.2289,0.5038,2.0875,3.5779,8.9775,-0.5163,2.1688,0.8667,3.654,-0.6572,8.3425,47
-0.0418,-0.1748,1.2289,0.5038,2.0875,3.5779,8.9775,-0.5163,2.1688,0.8667,3.654,-0.6572,8.3425,48
-0.0332,-0.1986,0.8421,0.4346,1.6961,3.7692,9.102,-0.6597,2.0647,0.6097,3.8352,-0.6411,8.5308,49
-0.0253,-0.1986,0.8421,0.4346,1.6961,3.7692,9.102,-0.6597,2.0647,0.6097,3.8352,-0.6411,8.5308,50
-0.0169,-0.4071,0.1109,0.0518,1.175,4.1172,9.3707,-0.9057,1.9643,0.1788,3.9444,-0.5839,8.8504,51
-0.0071,-0.4071,0.1109,0.0518,1.175,4.1172,9.3707,-0.9057,1.9643,0.1788,3.9444,-0.5839,8.8504,52
0.0021,-0.7406,-0.6517,-0.6003,0.8085,4.5074,9.6901,-1.0696,1.9256,-0.3317,3.9612,-0.4931,9.2294,53
0.0118,-0.7406,-0.6517,-0.6003,0.8085,4.5074,9.6901,-1.0696,1.9256,-0.3317,3.9612,-0.4931,9.2294,54
0.0185,-1.0718,-1.0973,-1.3307,0.7822,4.788,9.9543,-1.0817,1.9479,-0.8198,3.8501,-0.4259,9.5515,55
0.025,-1.0718,-1.0973,-1.3307,0.7822,4.788,9.9543,-1.0817,1.9479,-0.8198,3.8501,-0.4259,9.5515,56
0.0288,-1.3163,-1.2188,-1.9473,1.1305,4.8574,10.1444,-0.9578,1.9637,-1.2019,3.6362,-0.4377,9.7413,56
0.0332,-1.3163,-1.2188,-1.9473,1.1305,4.8574,10.1444,-0.9578,1.9637,-1.2019,3.6362,-0.4377,9.7413,57
0.0389,-1.442,-1.1325,-2.2883,1.6671,4.7616,10.2311,-0.8118,1.8165,-1.4299,3.4187,-0.5167,9.8516,58
0.0433,-1.442,-1.1325,-2.2883,1.6671,4.7616,10.2311,-0.8118,1.8165,-1.4299,3.4187,-0.5167,9.8516,59
0.0468,-1.442,-1.1325,-2.2883,1.6671,4.7616,10.2311,-0.8118,1.8165,-1.4299,3.4187,-0.5167,9.8516,60
0.0499,-1.5013,-0.9929,-2.3025,2.1205,4.6276,10.2147,-0.801,1.3951,-1.5297,3.3306,-0.6052,10.0009,61
0.0527,-1.5346,-1.0143,-2.1604,2.3271,4.5265,10.2222,-0.9669,0.7456,-1.5785,3.4169,-0.7036,10.2327,62
0.055,-1.5346,-1.0143,-2.1604,2.3271,4.5265,10.2222,-0.9669,0.7456,-1.5785,3.4169,-0.7036,10.2327,63
0.0574,-1.5346,-1.0143,-2.1604,2.3271,4.5265,10.2222,-0.9669,0.7456,-1.5785,3.4169,-0.7036,10.2327,64
0.0597,-1.4571,-1.1534,-2.0787,2.2702,4.4803,10.3552,-1.1991,0.0474,-1.6513,3.5874,-0.85,10.48,65
0.0616,-1.2198,-1.2589,-2.0811,2.0216,4.5155,10.5736,-1.3991,-0.5237,-1.8091,3.6969,-1.0207,10.6578,66
0.0618,-1.2198,-1.2589,-2.0811,2.0216,4.5155,10.5736,-1.3991,-0.5237,-1.8091,3.6969,-1.0207,10.6578,67
0.0616,-0.9467,-1.4471,-2.0536,1.6619,4.6456,10.8907,-1.6533,-0.9439,-2.0526,3.6649,-1.1892,10.8417,68
0.0609,-0.9467,-1.4471,-2.0536,1.6619,4.6456,10.8907,-1.6533,-0.9439,-2.0526,3.6649,-1.1892,10.8417,69
0.0585,-0.8024,-1.9451,-2.0207,1.2825,4.7733,11.4236,-2.054,-1.2682,-2.2941,3.5682,-1.453,11.1997,69
0.0515,-0.8024,-1.9451,-2.0207,1.2825,4.7733,11.4236,-2.054,-1.2682,-2.2941,3.5682,-1.453,11.1997,70
0.0374,-0.7858,-2.5979,-2.1623,1.0916,4.7115,12.0853,-2.3565,-1.4623,-2.4474,3.5029,-1.9013,11.6583,71
0.0198,-0.7858,-2.5979,-2.1623,1.0916,4.7115,12.0853,-2.3565,-1.4623,-2.4474,3.5029,-1.9013,11.6583,72
-0.001,-0.8038,-2.9041,-2.4362,1.2809,4.4008,12.5503,-2.1764,-1.5019,-2.4648,3.427,-2.4238,11.9032,73
-0.0212,-0.8038,-2.9041,-2.4362,1.2809,4.4008,12.5503,-2.1764,-1.5019,-2.4648,3.427,-2.4238,11.9032,74
-0.0401,-0.8038,-2.9041,-2.4362,1.2809,4.4008,12.5503,-2.1764,-1.5019,-2.4648,3.427,-2.4238,11.9032,75
-0.0587,-0.8038,-2.9041,-2.4362,1.2809,4.4008,12.5503,-2.1764,-1.5019,-2.4648,3.427,-2.4238,11.9032,76
-0.076,-0.896,-2.7863,-2.4424,1.6982,3.9115,12.6504,-1.5635,-1.6792,-2.2974,3.3262,-2.9207,11.8718,77
-0.102,-1.1274,-2.6376,-1.9412,1.9803,3.348,12.5197,-1.0032,-2.1955,-1.9849,3.3246,-3.3933,11.7883,78
-0.133,-1.1274,-2.6376,-1.9412,1.9803,3.348,12.5197,-1.0032,-2.1955,-1.9849,3.3246,-3.3933,11.7883,79
-0.1546,-1.1274,-2.6376,-1.9412,1.9803,3.348,12.5197,-1.0032,-2.1955,-1.9849,3.3246,-3.3933,11.7883,80
-0.1786,-1.4279,-2.4843,-1.1663,1.9101,2.8942,12.3014,-0.604,-2.4092,-1.7006,3.4052,-3.7217,11.6721,81
-0.2013,-1.5703,-1.9864,-0.4572,1.5219,2.6741,12.0533,-0.103,-1.7596,-1.4731,3.3804,-3.7444,11.4377,81
-0.2246,-1.5703,-1.9864,-0.4572,1.5219,2.6741,12.0533,-0.103,-1.7596,-1.4731,3.3804,-3.7444,11.4377,82
-0.2442,-1.2723,-0.9965,0.0045,1.0861,2.6527,11.7925,0.3836,-0.5885,-1.1148,3.2261,-3.4552,11.1213,83
-0.2659,-1.2723,-0.9965,0.0045,1.0861,2.6527,11.7925,0.3836,-0.5885,-1.1148,3.2261,-3.4552,11.1213,84
-0.2853,-0.5212,0.2832,0.2309,0.8804,2.7611,11.4867,0.6759,0.5807,-0.554,3.0311,-3.0054,10.7563,85
-0.3032,-0.5212,0.2832,0.2309,0.8804,2.7611,11.4867,0.6759,0.5807,-0.554,3.0311,-3.0054,10.7563,86
-0.32,0.3261,1.4175,0.3721,0.9857,2.92,11.1257,0.8924,1.3848,0.0992,2.8292,-2.5445,10.3214,87
-0.3384,0.3261,1.4175,0.3721,0.9857,2.92,11.1257,0.8924,1.3848,0.0992,2.8292,-2.5445,10.3214,88
-0.352,0.3261,1.4175,0.3721,0.9857,2.92,11.1257,0.8924,1.3848,0.0992,2.8292,-2.5445,10.3214,89
-0.3661,0.8489,2.1497,0.5492,1.3023,3.0323,10.681,1.1625,1.7315,0.7163,2.6756,-2.118,9.7817,90
-0.379,0.8489,2.1497,0.5492,1.3023,3.0323,10.681,1.1625,1.7315,0.7163,2.6756,-2.118,9.7817,91
-0.3923,0.8888,2.4916,0.7706,1.6403,3.0282,10.1116,1.4801,1.7723,1.1828,2.6483,-1.7595,9.1718,92
-0.4053,0.6841,2.5703,0.9871,1.8684,2.889,9.4812,1.7409,1.6222,1.4237,2.7511,-1.5321,8.5988,93
-0.4173,0.6841,2.5703,0.9871,1.8684,2.889,9.4812,1.7409,1.6222,1.4237,2.7511,-1.5321,8.5988,94
-0.4278,0.6841,2.5703,0.9871,1.8684,2.889,9.4812,1.7409,1.6222,1.4237,2.7511,-1.5321,8.5988,94
-0.4373,0.6462,2.5814,1.1539,1.9587,2.6485,8.9339,1.8579,1.3375,1.4566,2.9015,-1.4513,8.1613,95
-0.4452,0.9491,2.5684,1.212,1.9238,2.3855,8.5994,1.8207,0.9278,1.3704,3.0332,-1.4641,7.9117,96
-0.4505,0.9491,2.5684,1.212,1.9238,2.3855,8.5994,1.8207,0.9278,1.3704,3.0332,-1.4641,7.9117,97
-0.4539,1.4844,2.5324,1.1313,1.7989,2.2085,8.5407,1.6619,0.4663,1.2564,3.1664,-1.525,7.8476,98
-0.4568,1.4844,2.5324,1.1313,1.7989,2.2085,8.5407,1.6619,0.4663,1.2564,3.1664,-1.525,7.8476,99
-0.4584,2.0448,2.5496,0.9383,1.6416,2.1806,8.7204,1.455,0.1565,1.1678,3.3429,-1.6132,7.9049,0
-0.4584,2.0448,2.5496,0.9383,1.6416,2.1806,8.7204,1.455,0.1565,1.1678,3.3429,-1.6132,7.9049,1
-0.4577,2.0448,2.5496,0.9383,1.6416,2.1806,8.7204,1.455,0.1565,1.1678,3.3429,-1.6132,7.9049,2
-0.4559,2.448,2.5992,0.6908,1.4886,2.2745,9.0286,1.2847,0.1457,1.1166,3.5317,-1.6966,8.015,3
-0.4524,2.448,2.5992,0.6908,1.4886,2.2745,9.0286,1.2847,0.1457,1.1166,3.5317,-1.6966,8.015,4
-0.4465,2.612,2.59,0.4531,1.3234,2.4359,9.3694,1.1336,0.3977,1.0778,3.6696,-1.7613,8.1557,5
-0.4382,2.612,2.59,0.4531,1.3234,2.4359,9.3694,1.1336,0.3977,1.0778,3.6696,-1.7613,8.1557,6
-0.4261,2.526,2.282,0.2171,1.1258,2.6314,9.7682,0.882,0.7026,1.0195,3.7148,-1.8398,8.382,7
-0.413,2.526,2.282,0.2171,1.1258,2.6314,9.7682,0.882,0.7026,1.0195,3.7148,-1.8398,8.382,8
-0.3981,2.1828,1.3967,-0.0786,0.9154,2.8301,10.2766,0.509,0.7674,0.9354,3.6055,-1.9836,8.7905,9
-0.3853,2.1828,1.3967,-0.0786,0.9154,2.8301,10.2766,0.509,0.7674,0.9354,3.6055,-1.9836,8.7905,10
-0.3793,1.5567,-0.0102,-0.4159,0.7332,3.022,10.8599,0.1463,0.3643,0.8587,3.3146,-2.1872,9.3677,11
-0.3781,1.5567,-0.0102,-0.4159,0.7332,3.022,10.8599,0.1463,0.3643,0.8587,3.3146,-2.1872,9.3677,12
-0.3796,0.6615,-1.5288,-0.6367,0.6563,3.2533,11.4342,-0.0679,-0.5608,0.8346,2.9646,-2.3657,9.9715,13
-0.3807,0.6615,-1.5288,-0.6367,0.6563,3.2533,11.4342,-0.0679,-0.5608,0.8346,2.9646,-2.3657,9.9715,13
-0.3807,-0.3581,-2.6142,-0.5042,0.7417,3.4944,11.797,-0.0435,-1.8148,0.8449,2.7177,-2.4404,10.4023,14
-0.3807,-0.3581,-2.6142,-0.5042,0.7417,3.4944,11.797,-0.0435,-1.8148,0.8449,2.7177,-2.4404,10.4023,15
-0.3807,-1.2374,-3.16,0.0181,0.9151,3.6245,11.9182,-0.0158,-3.0325,0.8564,2.6407,-2.421,10.7591,16
-0.3801,-1.2374,-3.16,0.0181,0.9151,3.6245,11.9182,-0.0158,-3.0325,0.8564,2.6407,-2.421,10.7591,17
-0.3773,-1.2374,-3.16,0.0181,0.9151,3.6245,11.9182,-0.0158,-3.0325,0.8564,2.6407,-2.421,10.7591,18
-0.3733,-1.6666,-3.4897,0.5911,1.1149,3.7075,12.088,-0.3665,-3.8043,0.9326,2.8914,-2.4072,11.436,19
-0.3684,-1.6666,-3.4897,0.5911,1.1149,3.7075,12.088,-0.3665,-3.8043,0.9326,2.8914,-2.4072,11.436,20
-0.3638,-1.3894,-3.2613,0.9405,1.4458,3.9616,12.4114,-0.784,-3.6976,1.1077,3.5654,-2.4126,12.3201,21
-0.3613,-0.4649,-1.7698,1.2226,1.9083,4.4328,12.6729,-0.6441,-2.5495,1.2471,4.3013,-2.2746,12.9098,22
-0.3618,-0.4649,-1.7698,1.2226,1.9083,4.4328,12.6729,-0.6441,-2.5495,1.2471,4.3013,-2.2746,12.9098,23
-0.36,0.5968,0.3436,1.5786,2.264,4.9532,12.6904,-0.0844,-0.9441,1.2856,4.6598,-1.909,13.0804,24
-0.354,0.5968,0.3436,1.5786,2.264,4.9532,12.6904,-0.0844,-0.9441,1.2856,4.6598,-1.909,13.0804,25
-0.3417,1.2505,1.4593,1.8288,2.351,5.3436,12.5005,0.3391,0.2419,1.3242,4.546,-1.489,12.9388,26
-0.3255,1.2505,1.4593,1.8288,2.351,5.3436,12.5005,0.3391,0.2419,1.3242,4.546,-1.489,12.9388,27
-0.2989,1.4101,1.1138,1.9267,2.228,5.5169,12.2202,0.4772,0.6633,1.408,4.0113,-1.2075,12.5209,28
-0.2802,1.4101,1.1138,1.9267,2.228,5.5169,12.2202,0.4772,0.6633,1.408,4.0113,-1.2075,12.5209,29
-0.2599,1.3427,0.4309,2.1494,2.0123,5.5021,11.9363,0.4659,0.4408,1.5712,3.2498,-1.0427,11.9661,30
-0.2447,1.3427,0.4309,2.1494,2.0123,5.5021,11.9363,0.4659,0.4408,1.5712,3.2498,-1.0427,11.9661,31
-0.232,1.2024,0.5025,2.6309,1.7133,5.4153,11.6901,0.4156,-0.0968,1.923,2.7285,-0.9198,11.4581,32
-0.2214,1.2024,0.5025,2.6309,1.7133,5.4153,11.6901,0.4156,-0.0968,1.923,2.7285,-0.9198,11.4581,33
-0.2125,0.9385,1.2448,3.0594,1.3155,5.3068,11.4505,0.4328,-0.4391,2.4385,2.7778,-0.8559,11.0092,34
-0.2027,0.9385,1.2448,3.0594,1.3155,5.3068,11.4505,0.4328,-0.4391,2.4385,2.7778,-0.8559,11.0092,35
-0.1918,0.5739,2.0018,3.0146,0.9313,5.1192,11.1441,0.6044,-0.1388,2.8943,3.2368,-0.8593,10.5171,36
-0.1801,0.5739,2.0018,3.0146,0.9313,5.1192,11.1441,0.6044,-0.1388,2.8943,3.2368,-0.8593,10.5171,37
-0.1679,0.2907,2.452,2.4128,0.6987,4.8261,10.6833,0.8847,0.8802,3.085,3.7281,-0.8681,9.9053,38
-0.1555,0.2907,2.452,2.4128,0.6987,4.8261,10.6833,0.8847,0.8802,3.085,3.7281,-0.8681,9.9053,38
-0.1433,0.1901,2.4491,1.4813,0.6596,4.4953,10.0596,1.1111,2.354,2.9625,4.0031,-0.8093,9.2149,39
-0.1305,0.1839,2.0072,0.5182,0.7847,4.2235,9.4007,1.1449,3.8243,2.6304,3.9925,-0.6637,8.5754,40
-0.1184,0.1839,2.0072,0.5182,0.7847,4.2235,9.4007,1.1449,3.8243,2.6304,3.9925,-0.6637,8.5754,41
-0.1083,0.1616,1.4801,-0.2891,0.9749,4.0537,8.8356,0.9449,4.825,2.2309,3.7839,-0.4764,8.0974,42
-0.0978,0.1616,1.4801,-0.2891,0.9749,4.0537,8.8356,0.9449,4.825,2.2309,3.7839,-0.4764,8.0974,43
-0.0895,0.1135,1.076,-0.9358,1.0915,3.9642,8.4247,0.5402,5.1995,1.8212,3.5392,-0.3204,7.8365,44
-0.0796,0.1135,1.076,-0.9358,1.0915,3.9642,8.4247,0.5402,5.1995,1.8212,3.5392,-0.3204,7.8365,45
-0.0713,0.1738,0.8559,-1.4757,1.099,3.9284,8.1928,0.0015,5.1445,1.3943,3.3574,-0.2511,7.8049,46
-0.0631,0.1738,0.8559,-1.4757,1.099,3.9284,8.1928,0.0015,5.1445,1.3943,3.3574,-0.2511,7.8049,47
-0.0537,0.434,0.9087,-1.9313,1.1042,3.9385,8.1386,-0.5552,4.9476,0.9442,3.2561,-0.2851,7.9751,48
-0.0445,0.434,0.9087,-1.9313,1.1042,3.9385,8.1386,-0.5552,4.9476,0.9442,3.2561,-0.2851,7.9751,49
-0.0353,0.8188,1.2591,-2.293,1.2093,3.995,8.2438,-0.9702,4.7839,0.473,3.2115,-0.3861,8.2882,50
-0.0257,0.8188,1.2591,-2.293,1.2093,3.995,8.2438,-0.9702,4.7839,0.473,3.2115,-0.3861,8.2882,51
-0.0168,1.2161,1.8067,-2.5194,1.3951,4.0918,8.4697,-1.1277,4.624,-0.0006,3.1684,-0.4906,8.6683,52
-0.0069,1.2161,1.8067,-2.5194,1.3951,4.0918,8.4697,-1.1277,4.624,-0.0006,3.1684,-0.4906,8.6683,53
0.0057,1.5587,2.3132,-2.5589,1.5938,4.2228,8.7985,-1.1122,4.239,-0.433,3.0906,-0.5565,9.0459,54
0.0155,1.5587,2.3132,-2.5589,1.5938,4.2228,8.7985,-1.1122,4.239,-0.433,3.0906,-0.5565,9.0459,55
0.0247,1.7791,2.5472,-2.4255,1.7523,4.3927,9.2321,-1.1108,3.522,-0.81,3.0194,-0.5774,9.358,56
0.0326,1.7791,2.5472,-2.4255,1.7523,4.3927,9.2321,-1.1108,3.522,-0.81,3.0194,-0.5774,9.358,57
0.0391,1.7701,2.4386,-2.2398,1.7763,4.6405,9.724,-1.1965,2.7456,-1.1839,3.0015,-0.5475,9.5857,58
0.046,1.7701,2.4386,-2.2398,1.7763,4.6405,9.724,-1.1965,2.7456,-1.1839,3.0015,-0.5475,9.5857,59
0.0521,1.4062,2.1274,-2.1475,1.5355,4.995,10.1882,-1.3465,2.1572,-1.6029,2.9827,-0.4849,9.8055,60
0.0595,1.4062,2.1274,-2.1475,1.5355,4.995,10.1882,-1.3465,2.1572,-1.6029,2.9827,-0.4849,9.8055,61
0.0661,0.6485,1.6387,-2.2968,1.0707,5.3643,10.5626,-1.5274,1.7073,-2.0232,2.8878,-0.4586,10.1078,62
0.0737,0.6485,1.6387,-2.2968,1.0707,5.3643,10.5626,-1.5274,1.7073,-2.0232,2.8878,-0.4586,10.1078,63
0.0843,-0.299,0.7587,-2.7383,0.665,5.6081,10.8523,-1.6933,1.3449,-2.3508,2.7368,-0.5456,10.5116,63
0.0897,-0.299,0.7587,-2.7383,0.665,5.6081,10.8523,-1.6933,1.3449,-2.3508,2.7368,-0.5456,10.5116,64
0.0939,-1.079,-0.4126,-3.2951,0.5235,5.6832,11.0905,-1.7825,1.0891,-2.5553,2.6103,-0.7863,10.9426,65
0.0971,-1.079,-0.4126,-3.2951,0.5235,5.6832,11.0905,-1.7825,1.0891,-2.5553,2.6103,-0.7863,10.9426,66
0.098,-1.079,-0.4126,-3.2951,0.5235,5.6832,11.0905,-1.7825,1.0891,-2.5553,2.6103,-0.7863,10.9426,67
0.0967,-1.3935,-1.3839,-3.6978,0.5161,5.6712,11.379,-1.8536,0.9025,-2.696,2.5664,-1.1272,11.398,68
0.0924,-1.241,-2.0838,-3.9606,0.3313,5.6808,11.855,-2.0324,0.7949,-2.8301,2.639,-1.5933,12.0126,69
0.0798,-1.241,-2.0838,-3.9606,0.3313,5.6808,11.855,-2.0324,0.7949,-2.8301,2.639,-1.5933,12.0126,70
0.0605,-0.8756,-2.7799,-4.4233,-0.0349,5.6431,12.4389,-2.139,0.9518,-3.0407,2.7899,-2.2814,12.6176,71
0.0328,-0.8756,-2.7799,-4.4233,-0.0349,5.6431,12.4389,-2.139,0.9518,-3.0407,2.7899,-2.2814,12.6176,72
0.0031,-0.5626,-3.3736,-5.1012,-0.217,5.354,12.8027,-1.8919,1.3037,-3.4231,2.8173,-3.0029,12.7753,73
-0.0249,-0.5626,-3.3736,-5.1012,-0.217,5.354,12.8027,-1.8919,1.3037,-3.4231,2.8173,-3.0029,12.7753,74
-0.0497,-0.3922,-3.6634,-5.5382,-0.0733,4.7388,12.7209,-1.4625,1.2623,-3.8512,2.5837,-3.5184,12.4815,75
-0.0756,-0.3922,-3.6634,-5.5382,-0.0733,4.7388,12.7209,-1.4625,1.2623,-3.8512,2.5837,-3.5184,12.4815,76
-0.0991,-0.3922,-3.6634,-5.5382,-0.0733,4.7388,12.7209,-1.4625,1.2623,-3.8512,2.5837,-3.5184,12.4815,77
-0.125,-0.1831,-3.5606,-5.4144,0.2351,3.9754,12.3493,-1.1953,0.5145,-4.1305,2.2397,-3.8655,12.1066,78
-0.1503,-0.1831,-3.5606,-5.4144,0.2351,3.9754,12.3493,-1.1953,0.5145,-4.1305,2.2397,-3.8655,12.1066,79
-0.1742,0.084,-3.0268,-4.7748,0.4772,3.3957,11.9674,-1.067,-0.4688,-4.3369,1.952,-4.0641,11.7957,80
-0.1992,0.1197,-2.2337,-3.9089,0.4178,3.1907,11.6673,-0.8547,-1.2027,-4.6012,1.6962,-4.0314,11.4893,81
-0.2248,0.1197,-2.2337,-3.9089,0.4178,3.1907,11.6673,-0.8547,-1.2027,-4.6012,1.6962,-4.0314,11.4893,82
-0.251,-0.1533,-1.5016,-3.2405,0.1176,3.2648,11.4048,-0.4173,-1.5676,-4.8032,1.4822,-3.8235,11.1907,83
-0.2726,-0.1533,-1.5016,-3.2405,0.1176,3.2648,11.4048,-0.4173,-1.5676,-4.8032,1.4822,-3.8235,11.1907,84
-0.2928,-0.5015,-1.1442,-3.0378,-0.0682,3.3987,11.147,0.3262,-1.434,-4.7745,1.3733,-3.5332,10.91,85
-0.3134,-0.5015,-1.1442,-3.0378,-0.0682,3.3987,11.147,0.3262,-1.434,-4.7745,1.3733,-3.5332,10.91,86
-0.3335,-0.7628,-1.1244,-3.0996,0.1684,3.4532,10.8681,1.3424,-1.0782,-4.4942,1.3379,-3.1391,10.5464,87
-0.3611,-0.7628,-1.1244,-3.0996,0.1684,3.4532,10.8681,1.3424,-1.0782,-4.4942,1.3379,-3.1391,10.5464,88
-0.3764,-0.7628,-1.1244,-3.0996,0.1684,3.4532,10.8681,1.3424,-1.0782,-4.4942,1.3379,-3.1391,10.5464,88
-0.3899,-0.9119,-0.9898,-2.9923,0.8173,3.4048,10.4601,2.3736,-1.0897,-3.9971,1.3781,-2.6323,9.988,89
-0.4026,-0.8803,-0.4213,-2.5316,1.5665,3.2633,9.8368,3.0061,-1.432,-3.369,1.5661,-2.0946,9.2695,90
-0.4146,-0.8803,-0.4213,-2.5316,1.5665,3.2633,9.8368,3.0061,-1.432,-3.369,1.5661,-2.0946,9.2695,91
-0.4274,-0.5993,0.5709,-1.8191,2.1454,3.0395,9.0733,3.03,-1.6434,-2.7576,1.8973,-1.6356,8.5259,92
-0.4427,-0.5993,0.5709,-1.8191,2.1454,3.0395,9.0733,3.03,-1.6434,-2.7576,1.8973,-1.6356,8.5259,93
-0.4547,-0.1022,1.719,-1.0894,2.4797,2.7711,8.3356,2.6262,-1.5929,-2.253,2.2205,-1.3087,7.901,94
-0.4658,-0.1022,1.719,-1.0894,2.4797,2.7711,8.3356,2.6262,-1.5929,-2.253,2.2205,-1.3087,7.901,95
-0.4753,0.5266,2.4867,-0.5593,2.5897,2.545,7.7988,2.0663,-1.4412,-1.7841,2.377,-1.105,7.4942,96
-0.4842,0.5266,2.4867,-0.5593,2.5897,2.545,7.7988,2.0663,-1.4412,-1.7841,2.377,-1.105,7.4942,97
-0.4904,1.2199,2.7493,-0.2556,2.5326,2.44,7.6204,1.4812,-1.2629,-1.2004,2.4409,-1.0292,7.2786,98
-0.4948,1.2199,2.7493,-0.2556,2.5326,2.44,7.6204,1.4812,-1.2629,-1.2004,2.4409,-1.0292,7.2786,99
-0.4974,1.8726,2.8343,-0.0717,2.397,2.4963,7.8565,0.7945,-0.8812,-0.4653,2.6148,-1.0628,7.1981,0
-0.4971,1.8726,2.8343,-0.0717,2.397,2.4963,7.8565,0.7945,-0.8812,-0.4653,2.6148,-1.0628,7.1981,1
-0.4956,2.3382,2.8072,0.0754,2.2256,2.7179,8.4189,-0.1599,-0.0593,0.308,2.9276,-1.152,7.2891,2
-0.4906,2.3382,2.8072,0.0754,2.2256,2.7179,8.4189,-0.1599,-0.0593,0.308,2.9276,-1.152,7.2891,3
-0.4829,2.5246,2.7164,0.2254,1.993,3.0274,9.1393,-1.3035,1.1355,1.0058,3.2491,-1.2967,7.6075,4
-0.4714,2.5246,2.7164,0.2254,1.993,3.0274,9.1393,-1.3035,1.1355,1.0058,3.2491,-1.2967,7.6075,5
-0.4579,2.4081,2.5234,0.3463,1.6892,3.3019,9.8521,-2.316,2.2994,1.5573,3.5005,-1.5458,8.1673,6
-0.4415,2.4081,2.5234,0.3463,1.6892,3.3019,9.8521,-2.316,2.2994,1.5573,3.5005,-1.5458,8.1673,7
-0.4204,2.0362,1.8645,0.3356,1.3466,3.4508,10.458,-2.9095,2.9872,1.861,3.6732,-1.9525,8.8946,8
-0.4025,2.0362,1.8645,0.3356,1.3466,3.4508,10.458,-2.9095,2.9872,1.861,3.6732,-1.9525,8.8946,9
-0.3894,1.5481,0.619,0.1905,1.0284,3.4689,10.9454,-2.9547,3.0045,1.878,3.7087,-2.475,9.6285,10
-0.3855,1.5481,0.619,0.1905,1.0284,3.4689,10.9454,-2.9547,3.0045,1.878,3.7087,-2.475,9.6285,11
-0.3866,1.1107,-0.7386,0.0482,0.8008,3.4463,11.3619,-2.5436,2.369,1.7123,3.583,-2.9594,10.2627,12
-0.3885,0.8349,-1.5774,-0.0015,0.6805,3.4935,11.7441,-1.8907,1.2298,1.5046,3.4235,-3.2945,10.7703,13
-0.391,0.8349,-1.5774,-0.0015,0.6805,3.4935,11.7441,-1.8907,1.2298,1.5046,3.4235,-3.2945,10.7703,14
-0.393,0.8349,-1.5774,-0.0015,0.6805,3.4935,11.7441,-1.8907,1.2298,1.5046,3.4235,-3.2945,10.7703,15
-0.3952,0.6807,-1.8104,-0.0033,0.6423,3.6288,12.0787,-1.1319,-0.1122,1.3324,3.2829,-3.4728,11.1551,16
-0.3965,0.6807,-1.8104,-0.0033,0.6423,3.6288,12.0787,-1.1319,-0.1122,1.3324,3.2829,-3.4728,11.1551,17
-0.3978,0.5591,-1.8901,-0.0146,0.6714,3.8193,12.4315,-0.5048,-1.4055,1.258,3.0687,-3.5524,11.599,18
-0.3965,0.5424,-2.0091,0.052,0.829,4.1744,12.9254,-0.2254,-2.4157,1.3542,2.8878,-3.5917,12.3122,19
-0.3949,0.5424,-2.0091,0.052,0.829,4.1744,12.9254,-0.2254,-2.4157,1.3542,2.8878,-3.5917,12.3122,20
-0.3942,0.6627,-1.69,0.4402,1.1098,4.8314,13.4179,-0.0016,-2.7337,1.5304,2.817,-3.4811,13.0875,21
-0.3946,0.6627,-1.69,0.4402,1.1098,4.8314,13.4179,-0.0016,-2.7337,1.5304,2.817,-3.4811,13.0875,22
-0.3948,0.756,-0.3693,1.3363,1.3279,5.6212,13.5571,0.4936,-2.2677,1.5948,2.595,-3.0361,13.4988,23
-0.3943,0.756,-0.3693,1.3363,1.3279,5.6212,13.5571,0.4936,-2.2677,1.5948,2.595,-3.0361,13.4988,24
-0.3908,0.756,-0.3693,1.3363,1.3279,5.6212,13.5571,0.4936,-2.2677,1.5948,2.595,-3.0361,13.4988,25
-0.3823,0.6508,1.5136,2.5546,1.3428,6.2302,13.2537,1.03,-1.6337,1.6054,2.1011,-2.3907,13.4033,25
-0.3678,0.2635,2.6432,3.6765,1.0926,6.5629,12.7211,1.3878,-1.3727,1.7717,1.4885,-1.8797,12.9537,26
-0.3508,0.2635,2.6432,3.6765,1.0926,6.5629,12.7211,1.3878,-1.3727,1.7717,1.4885,-1.8797,12.9537,27
-0.3324,0.2635,2.6432,3.6765,1.0926,6.5629,12.7211,1.3878,-1.3727,1.7717,1.4885,-1.8797,12.9537,28
-0.3142,-0.1971,2.6905,4.5676,0.578,6.6357,12.1385,1.7276,-1.3284,2.1958,0.8897,-1.577,12.3774,29
-0.2988,-0.1971,2.6905,4.5676,0.578,6.6357,12.1385,1.7276,-1.3284,2.1958,0.8897,-1.577,12.3774,30
-0.2847,-0.5621,2.508,5.3044,-0.033,6.4654,11.5508,2.004,-1.2043,2.9419,0.4731,-1.363,11.8119,31
-0.2724,-0.5621,2.508,5.3044,-0.033,6.4654,11.5508,2.004,-1.2043,2.9419,0.4731,-1.363,11.8119,32
-0.2597,-1.0214,2.5913,5.7677,-0.5154,6.1518,10.9954,1.9946,-0.9036,3.9132,0.5283,-1.2311,11.2932,33
-0.2436,-1.0214,2.5913,5.7677,-0.5154,6.1518,10.9954,1.9946,-0.9036,3.9132,0.5283,-1.2311,11.2932,34
-0.2284,-1.5419,2.7331,5.7151,-0.8014,5.7903,10.52,1.8889,-0.2563,4.7396,1.1257,-1.2321,10.7878,35
-0.213,-1.5419,2.7331,5.7151,-0.8014,5.7903,10.52,1.8889,-0.2563,4.7396,1.1257,-1.2321,10.7878,36
-0.1951,-1.9427,2.4874,5.0364,-0.9381,5.3827,10.0735,1.9939,0.8208,5.0725,1.9545,-1.2942,10.1615,37
-0.1788,-1.9427,2.4874,5.0364,-0.9381,5.3827,10.0735,1.9939,0.8208,5.0725,1.9545,-1.2942,10.1615,38
-0.1615,-1.9427,2.4874,5.0364,-0.9381,5.3827,10.0735,1.9939,0.8208,5.0725,1.9545,-1.2942,10.1615,39
-0.1438,-2.3135,1.5168,3.8987,-0.8786,4.9052,9.5889,2.2472,2.1111,4.8277,2.6622,-1.2878,9.3589,40
-0.1293,-2.3135,1.5168,3.8987,-0.8786,4.9052,9.5889,2.2472,2.1111,4.8277,2.6622,-1.2878,9.3589,41
-0.1121,-2.6971,0.1442,2.7441,-0.5703,4.3816,9.0629,2.399,3.3127,4.1798,3.0846,-1.1605,8.5037,42
-0.0981,-2.6971,0.1442,2.7441,-0.5703,4.3816,9.0629,2.399,3.3127,4.1798,3.0846,-1.1605,8.5037,43
-0.0847,-2.8908,-0.7855,1.9487,-0.1033,3.9037,8.5176,2.2431,4.1819,3.3997,3.2325,-0.9496,7.7702,44
-0.0727,-2.8908,-0.7855,1.9487,-0.1033,3.9037,8.5176,2.2431,4.1819,3.3997,3.2325,-0.9496,7.7702,45
-0.0621,-2.7277,-0.986,1.4939,0.3636,3.5736,8.021,1.7184,4.652,2.6602,3.177,-0.7279,7.3418,46
-0.0512,-2.7277,-0.986,1.4939,0.3636,3.5736,8.021,1.7184,4.652,2.6602,3.177,-0.7279,7.3418,47
-0.0403,-2.7277,-0.986,1.4939,0.3636,3.5736,8.021,1.7184,4.652,2.6602,3.177,-0.7279,7.3418,48
-0.0292,-2.1231,-0.767,1.1265,0.6876,3.4369,7.6888,0.9724,4.9005,2.018,2.9675,-0.5649,7.3418,49
-0.0181,-2.1231,-0.767,1.1265,0.6876,3.4369,7.6888,0.9724,4.9005,2.018,2.9675,-0.5649,7.3418,50
-0.0071,-1.1338,-0.4622,0.6939,0.8405,3.4785,7.6613,0.2134,4.9041,1.4889,2.6832,-0.5218,7.726,51
0.0042,-1.1338,-0.4622,0.6939,0.8405,3.4785,7.6613,0.2134,4.9041,1.4889,2.6832,-0.5218,7.726,52
0.0153,-0.0106,-0.2239,0.2507,0.9311,3.6315,8.001,-0.3746,4.3523,1.0905,2.4227,-0.5943,8.3235,53
0.0251,-0.0106,-0.2239,0.2507,0.9311,3.6315,8.001,-0.3746,4.3523,1.0905,2.4227,-0.5943,8.3235,54
0.0358,0.99,0.0376,-0.0634,1.0365,3.8635,8.5849,-0.7189,3.314,0.7985,2.268,-0.6994,8.9498,55
0.0459,0.99,0.0376,-0.0634,1.0365,3.8635,8.5849,-0.7189,3.314,0.7985,2.268,-0.6994,8.9498,56
0.0548,1.6195,0.3235,-0.2183,1.1173,4.2097,9.204,-0.9629,2.1737,0.4963,2.2651,-0.7339,9.4754,57
0.0638,1.6195,0.3235,-0.2183,1.1173,4.2097,9.204,-0.9629,2.1737,0.4963,2.2651,-0.7339,9.4754,58
0.0737,1.7575,0.4327,-0.312,1.12,4.6282,9.7335,-1.2974,1.1754,0.0856,2.359,-0.6735,9.8902,59
0.0845,1.7575,0.4327,-0.312,1.12,4.6282,9.7335,-1.2974,1.1754,0.0856,2.359,-0.6735,9.8902,60
0.0953,1.7575,0.4327,-0.312,1.12,4.6282,9.7335,-1.2974,1.1754,0.0856,2.359,-0.6735,9.8902,61
0.1054,1.5247,0.2093,-0.4479,1.0698,4.9921,10.1673,-1.7371,0.3532,-0.4013,2.4112,-0.6221,10.2698,62
0.1135,1.5247,0.2093,-0.4479,1.0698,4.9921,10.1673,-1.7371,0.3532,-0.4013,2.4112,-0.6221,10.2698,63
0.1209,1.0842,-0.3738,-0.6928,1.0522,5.2423,10.5599,-2.1273,-0.3933,-0.8577,2.3386,-0.6875,10.6668,64
0.1261,1.0842,-0.3738,-0.6928,1.0522,5.2423,10.5599,-2.1273,-0.3933,-0.8577,2.3386,-0.6875,10.6668,65
0.1304,0.5172,-1.1571,-1.0241,1.1155,5.3983,10.925,-2.2873,-1.0565,-1.1042,2.2337,-0.8579,11.0243,66
0.1323,0.5172,-1.1571,-1.0241,1.1155,5.3983,10.925,-2.2873,-1.0565,-1.1042,2.2337,-0.8579,11.0243,67
0.1322,-0.05,-1.788,-1.2972,1.1518,5.4846,11.2564,-2.2179,-1.5583,-1.1693,2.2,-1.0851,11.3559,68
0.1296,-0.05,-1.788,-1.2972,1.1518,5.4846,11.2564,-2.2179,-1.5583,-1.1693,2.2,-1.0851,11.3559,69
0.1209,-0.3674,-2.1595,-1.4833,0.9716,5.5171,11.701,-2.1714,-1.9699,-1.3932,2.2252,-1.4852,11.8604,70
0.1047,-0.3674,-2.1595,-1.4833,0.9716,5.5171,11.701,-2.1714,-1.9699,-1.3932,2.2252,-1.4852,11.8604,71
0.0765,-0.3601,-2.5421,-1.8109,0.6021,5.4696,12.4166,-2.1583,-2.2671,-1.8709,2.2867,-2.2165,12.496,72
0.0495,-0.3601,-2.5421,-1.8109,0.6021,5.4696,12.4166,-2.1583,-2.2671,-1.8709,2.2867,-2.2165,12.496,73
0.0191,-0.3392,-3.1014,-2.3917,0.2802,5.2592,13.1983,-1.8139,-2.317,-2.4677,2.3846,-3.085,12.8313,74
-0.009,-0.3392,-3.1014,-2.3917,0.2802,5.2592,13.1983,-1.8139,-2.317,-2.4677,2.3846,-3.085,12.8313,75
-0.0358,-0.5865,-3.7362,-3.0069,0.1909,4.8597,13.6584,-1.1954,-2.1978,-3.0422,2.5077,-3.7153,12.6606,75
-0.0637,-0.5865,-3.7362,-3.0069,0.1909,4.8597,13.6584,-1.1954,-2.1978,-3.0422,2.5077,-3.7153,12.6606,76
-0.0868,-1.0355,-3.9462,-3.3899,0.3526,4.3917,13.663,-0.7523,-2.1995,-3.4576,2.5041,-4.054,12.2467,77
-0.1148,-1.0355,-3.9462,-3.3899,0.3526,4.3917,13.663,-0.7523,-2.1995,-3.4576,2.5041,-4.054,12.2467,78
-0.1427,-1.5804,-3.401,-3.4599,0.5272,3.9927,13.2269,-0.5798,-2.5292,-3.7411,2.1936,-4.1926,11.7989,79
-0.1721,-1.5804,-3.401,-3.4599,0.5272,3.9927,13.2269,-0.5798,-2.5292,-3.7411,2.1936,-4.1926,11.7989,80
-0.1991,-2.0889,-2.3703,-3.3216,0.41,3.6621,12.4372,-0.5059,-2.84,-3.9853,1.6835,-4.0816,11.3461,81
-0.2266,-2.0889,-2.3703,-3.3216,0.41,3.6621,12.4372,-0.5059,-2.84,-3.9853,1.6835,-4.0816,11.3461,82
-0.2507,-2.1785,-0.9807,-3.1465,0.0214,3.3833,11.5337,-0.3711,-2.6621,-4.1289,1.2588,-3.742,10.9458,83
-0.2742,-2.1785,-0.9807,-3.1465,0.0214,3.3833,11.5337,-0.3711,-2.6621,-4.1289,1.2588,-3.742,10.9458,84
-0.2982,-1.7224,0.4185,-3.1321,-0.2985,3.2333,10.7492,-0.0782,-2.0849,-3.9919,1.0981,-3.3088,10.5839,85
-0.3209,-1.7224,0.4185,-3.1321,-0.2985,3.2333,10.7492,-0.0782,-2.0849,-3.9919,1.0981,-3.3088,10.5839,86
-0.3438,-1.7224,0.4185,-3.1321,-0.2985,3.2333,10.7492,-0.0782,-2.0849,-3.9919,1.0981,-3.3088,10.5839,87
-0.3643,-1.0775,1.2315,-3.3816,-0.229,3.2061,10.1784,0.423,-1.3034,-3.5597,1.182,-2.865,10.1916,88
-0.3836,-0.5314,1.7283,-3.649,0.2675,3.1754,9.7497,1.12,-0.4538,-3.0127,1.3516,-2.4393,9.698,89
-0.4011,-0.5314,1.7283,-3.649,0.2675,3.1754,9.7497,1.12,-0.4538,-3.0127,1.3516,-2.4393,9.698,90
-0.4184,-0.128,2.3663,-3.6349,0.9496,3.0877,9.3225,1.703,0.1308,-2.437,1.4975,-2.0394,9.0716,91
-0.4332,-0.128,2.3663,-3.6349,0.9496,3.0877,9.3225,1.703,0.1308,-2.437,1.4975,-2.0394,9.0716,92
-0.4488,-0.0098,2.9203,-3.3322,1.5071,2.9688,8.8389,1.8207,0.3567,-1.8227,1.6579,-1.6926,8.4527,93
-0.4629,-0.0098,2.9203,-3.3322,1.5071,2.9688,8.8389,1.8207,0.3567,-1.8227,1.6579,-1.6926,8.4527,94
-0.4761,-0.1107,3.2,-2.83,1.8042,2.8286,8.3971,1.5461,0.4049,-1.234,1.8703,-1.4712,7.9784,95
-0.4886,-0.1107,3.2,-2.83,1.8042,2.8286,8.3971,1.5461,0.4049,-1.234,1.8703,-1.4712,7.9784,96
-0.4996,-0.037,3.1902,-2.2464,1.8579,2.6824,8.1402,1.1167,0.34,-0.7555,2.0589,-1.4091,7.6716,97
-0.5097,-0.037,3.1902,-2.2464,1.8579,2.6824,8.1402,1.1167,0.34,-0.7555,2.0589,-1.4091,7.6716,98
-0.5157,0.2702,2.8296,-1.7172,1.7139,2.5666,8.1074,0.6121,0.1063,-0.3909,2.1375,-1.4758,7.5314,99
-0.5188,0.2702,2.8296,-1.7172,1.7139,2.5666,8.1074,0.6121,0.1063,-0.3909,2.1375,-1.4758,7.5314,0
-0.5181,0.5997,2.2264,-1.2704,1.4949,2.5135,8.2844,0.0901,-0.3898,-0.0527,2.1297,-1.6244,7.5748,1
-0.5165,0.5997,2.2264,-1.2704,1.4949,2.5135,8.2844,0.0901,-0.3898,-0.0527,2.1297,-1.6244,7.5748,2
-0.5127,0.8262,1.6122,-0.8591,1.3312,2.5289,8.6216,-0.2875,-1.0191,0.3368,2.1616,-1.8089,7.7992,3
-0.5068,0.8262,1.6122,-0.8591,1.3312,2.5289,8.6216,-0.2875,-1.0191,0.3368,2.1616,-1.8089,7.7992,4
-0.4975,0.9662,1.1293,-0.4314,1.2461,2.5746,9.0169,-0.4938,-1.4485,0.7757,2.3022,-1.9999,8.1228,5
-0.4848,0.9662,1.1293,-0.4314,1.2461,2.5746,9.0169,-0.4938,-1.4485,0.7757,2.3022,-1.9999,8.1228,6
-0.4703,1.1042,0.7557,0.0179,1.1947,2.6299,9.4347,-0.6721,-1.5735,1.2093,2.5186,-2.2154,8.5132,7
-0.4506,1.1042,0.7557,0.0179,1.1947,2.6299,9.4347,-0.6721,-1.5735,1.2093,2.5186,-2.2154,8.5132,8
-0.4292,1.2505,0.3283,0.4132,1.1156,2.7286,9.8934,-0.8488,-1.4825,1.5526,2.7909,-2.4862,9.0064,9
-0.4096,1.2505,0.3283,0.4132,1.1156,2.7286,9.8934,-0.8488,-1.4825,1.5526,2.7909,-2.4862,9.0064,10
-0.3911,1.3803,-0.3264,0.7268,0.9905,2.879,10.3735,-0.9531,-1.2831,1.7324,3.0916,-2.808,9.586,11
-0.3749,1.3803,-0.3264,0.7268,0.9905,2.879,10.3735,-0.9531,-1.2831,1.7324,3.0916,-2.808,9.586,12
-0.3683,1.4771,-1.1525,1.0277,0.8421,3.0694,10.8843,-0.8654,-1.1128,1.7113,3.3387,-3.1253,10.1844,13
-0.3674,1.4771,-1.1525,1.0277,0.8421,3.0694,10.8843,-0.8654,-1.1128,1.7113,3.3387,-3.1253,10.1844,14
-0.369,1.5063,-1.893,1.323,0.7158,3.297,11.4416,-0.5064,-1.1076,1.5049,3.477,-3.341,10.6862,15
-0.3706,1.5063,-1.893,1.323,0.7158,3.297,11.4416,-0.5064,-1.1076,1.5049,3.477,-3.341,10.6862,16
-0.3721,1.3905,-2.3967,1.5172,0.6515,3.5204,11.936,-0.003,-1.3702,1.1653,3.5003,-3.419,10.9969,17
-0.3729,1.3905,-2.3967,1.5172,0.6515,3.5204,11.936,-0.003,-1.3702,1.1653,3.5003,-3.419,10.9969,18
-0.3725,1.1473,-2.7544,1.5694,0.6456,3.705,12.2737,0.3618,-1.9269,0.8032,3.416,-3.416,11.2882,19
-0.3722,1.1473,-2.7544,1.5694,0.6456,3.705,12.2737,0.3618,-1.9269,0.8032,3.416,-3.416,11.2882,20
-0.3711,1.1473,-2.7544,1.5694,0.6456,3.705,12.2737,0.3618,-1.9269,0.8032,3.416,-3.416,11.2882,21
-0.367,0.9923,-3.0412,1.5891,0.7461,3.9866,12.6007,0.4403,-2.5721,0.595,3.3446,-3.3712,11.8475,22
-0.3629,0.9923,-3.0412,1.5891,0.7461,3.9866,12.6007,0.4403,-2.5721,0.595,3.3446,-3.3712,11.8475,23
-0.3606,0.9819,-3.0464,1.7739,1.0027,4.551,12.998,0.4648,-2.8173,0.5723,3.3672,-3.2023,12.5587,24
-0.3635,0.9311,-2.1733,2.325,1.3576,5.2826,13.2177,0.6685,-2.3862,0.6205,3.3188,-2.7825,13.0603,25
-0.366,0.9311,-2.1733,2.325,1.3576,5.2826,13.2177,0.6685,-2.3862,0.6205,3.3188,-2.7825,13.0603,25
-0.3665,0.9365,0.0734,3.2572,1.6975,5.9284,13.1267,0.8757,-1.5899,0.7539,3.1486,-2.1789,13.2517,26
-0.3622,0.9365,0.0734,3.2572,1.6975,5.9284,13.1267,0.8757,-1.5899,0.7539,3.1486,-2.1789,13.2517,27
-0.3532,1.0527,2.4982,4.1579,1.8006,6.4303,12.8616,0.9178,-0.7804,0.9695,2.9807,-1.6539,13.1761,28
-0.3403,1.0527,2.4982,4.1579,1.8006,6.4303,12.8616,0.9178,-0.7804,0.9695,2.9807,-1.6539,13.1761,29
-0.3246,0.9186,3.0637,4.5802,1.4602,6.7498,12.5364,0.9524,-0.0357,1.1324,2.6593,-1.352,12.8379,30
-0.3063,0.9186,3.0637,4.5802,1.4602,6.7498,12.5364,0.9524,-0.0357,1.1324,2.6593,-1.352,12.8379,31
-0.2902,0.9186,3.0637,4.5802,1.4602,6.7498,12.5364,0.9524,-0.0357,1.1324,2.6593,-1.352,12.8379,32
-0.2756,0.459,2.0273,4.6478,0.7904,6.7762,12.1907,1.0982,0.3202,1.3404,2.0125,-1.1955,12.3115,33
-0.2625,0.459,2.0273,4.6478,0.7904,6.7762,12.1907,1.0982,0.3202,1.3404,2.0125,-1.1955,12.3115,34
-0.2474,-0.126,1.0475,4.6321,0.1385,6.5404,11.8097,1.2768,0.1632,1.8425,1.366,-1.1059,11.6993,35
-0.234,-0.126,1.0475,4.6321,0.1385,6.5404,11.8097,1.2768,0.1632,1.8425,1.366,-1.1059,11.6993,36
-0.2206,-0.7674,0.6665,4.4698,-0.2341,6.1633,11.3947,1.4244,0.0489,2.5781,1.184,-1.0922,11.0689,37
-0.2066,-0.7674,0.6665,4.4698,-0.2341,6.1633,11.3947,1.4244,0.0489,2.5781,1.184,-1.0922,11.0689,38
-0.1903,-1.3926,0.6375,4.0545,-0.3235,5.7138,10.9335,1.6053,0.3853,3.2045,1.5465,-1.1246,10.3844,39
-0.1747,-1.3926,0.6375,4.0545,-0.3235,5.7138,10.9335,1.6053,0.3853,3.2045,1.5465,-1.1246,10.3844,40
-0.1568,-1.886,0.7009,3.4064,-0.2617,5.2084,10.3594,1.8959,1.2319,3.4253,2.1814,-1.1213,9.5771,41
-0.1418,-1.886,0.7009,3.4064,-0.2617,5.2084,10.3594,1.8959,1.2319,3.4253,2.1814,-1.1213,9.5771,42
-0.1225,-2.1817,0.5582,2.633,-0.0497,4.6205,9.6589,2.247,2.517,3.1929,2.7147,-1.0499,8.7289,43
-0.1077,-2.1817,0.5582,2.633,-0.0497,4.6205,9.6589,2.247,2.517,3.1929,2.7147,-1.0499,8.7289,44
-0.0924,-2.2717,0.1058,1.9055,0.3899,4.0085,8.9158,2.4826,3.8814,2.7271,2.9231,-0.9186,7.97,45
-0.0784,-2.2717,0.1058,1.9055,0.3899,4.0085,8.9158,2.4826,3.8814,2.7271,2.9231,-0.9186,7.97,46
-0.0661,-2.1299,-0.4393,1.3463,0.9601,3.5268,8.2478,2.5127,4.8497,2.3013,2.8772,-0.7309,7.4006,47
-0.0559,-2.1299,-0.4393,1.3463,0.9601,3.5268,8.2478,2.5127,4.8497,2.3013,2.8772,-0.7309,7.4006,48
-0.0454,-1.6779,-0.7336,0.9868,1.4335,3.2644,7.738,2.3097,5.198,2.0256,2.7409,-0.5298,7.1189,49
-0.0366,-1.6779,-0.7336,0.9868,1.4335,3.2644,7.738,2.3097,5.198,2.0256,2.7409,-0.5298,7.1189,50
-0.0246,-0.9365,-0.52,0.8043,1.693,3.2247,7.45,1.7631,5.0168,1.8624,2.5623,-0.3815,7.1656,51
-0.0144,-0.1522,0.0084,0.7348,1.7559,3.3735,7.4239,1.012,4.4804,1.7435,2.3526,-0.308,7.5045,52
-0.0025,-0.1522,0.0084,0.7348,1.7559,3.3735,7.4239,1.012,4.4804,1.7435,2.3526,-0.308,7.5045,53
0.009,0.467,0.5169,0.7183,1.6827,3.6636,7.6825,0.3339,3.7552,1.6239,2.1759,-0.2994,8.0455,54
0.0218,0.467,0.5169,0.7183,1.6827,3.6636,7.6825,0.3339,3.7552,1.6239,2.1759,-0.2994,8.0455,55
0.0342,0.467,0.5169,0.7183,1.6827,3.6636,7.6825,0.3339,3.7552,1.6239,2.1759,-0.2994,8.0455,56
0.0452,0.8969,0.8867,0.6993,1.5578,4.0394,8.1872,-0.1971,2.9949,1.4796,2.1055,-0.3295,8.6895,57
0.0552,1.1161,1.0392,0.6103,1.4184,4.4696,8.8106,-0.6446,2.2496,1.2745,2.1557,-0.3611,9.3651,58
0.0646,1.1161,1.0392,0.6103,1.4184,4.4696,8.8106,-0.6446,2.2496,1.2745,2.1557,-0.3611,9.3651,59
0.0855,1.0991,0.942,0.4308,1.2415,4.9504,9.4557,-1.0835,1.4649,0.9601,2.238,-0.3841,10.0265,60
0.094,1.0991,0.942,0.4308,1.2415,4.9504,9.4557,-1.0835,1.4649,0.9601,2.238,-0.3841,10.0265,61
0.1011,0.8986,0.6128,0.1884,1.046,5.4237,10.0931,-1.4809,0.6178,0.5222,2.2259,-0.4285,10.676,62
0.106,0.8986,0.6128,0.1884,1.046,5.4237,10.0931,-1.4809,0.6178,0.5222,2.2259,-0.4285,10.676,63
0.1101,0.5647,0.0301,-0.1341,0.9099,5.7787,10.6837,-1.7194,-0.2068,0.0041,2.1262,-0.5356,11.2783,64
0.1125,0.5647,0.0301,-0.1341,0.9099,5.7787,10.6837,-1.7194,-0.2068,0.0041,2.1262,-0.5356,11.2783,65
0.1134,0.1489,-0.7358,-0.5731,0.88,5.9488,11.1569,-1.7182,-0.8835,-0.5246,2.0738,-0.7258,11.7003,66
0.113,0.1489,-0.7358,-0.5731,0.88,5.9488,11.1569,-1.7182,-0.8835,-0.5246,2.0738,-0.7258,11.7003,67
0.1121,-0.2364,-1.5696,-1.089,0.8666,5.957,11.5523,-1.619,-1.4011,-1.0242,2.1053,-0.9998,11.9853,68
0.107,-0.4624,-2.4009,-1.6586,0.7651,5.8552,12.0931,-1.7326,-1.8657,-1.4692,2.1791,-1.4634,12.3882,69
0.0945,-0.4624,-2.4009,-1.6586,0.7651,5.8552,12.0931,-1.7326,-1.8657,-1.4692,2.1791,-1.4634,12.3882,70
0.0661,-0.4582,-2.9699,-2.3125,0.6432,5.64,12.8623,-2.007,-2.2474,-1.8643,2.279,-2.2362,12.9017,71
0.0414,-0.4582,-2.9699,-2.3125,0.6432,5.64,12.8623,-2.007,-2.2474,-1.8643,2.279,-2.2362,12.9017,72
0.0142,-0.3909,-3.1587,-2.9802,0.5638,5.2813,13.5438,-1.943,-2.3669,-2.2696,2.3776,-3.093,13.1167,73
-0.0109,-0.3909,-3.1587,-2.9802,0.5638,5.2813,13.5438,-1.943,-2.3669,-2.2696,2.3776,-3.093,13.1167,74
-0.0372,-0.5594,-3.295,-3.4703,0.531,4.794,13.7627,-1.4611,-2.3133,-2.6501,2.4765,-3.6474,12.7622,75
-0.0621,-0.5594,-3.295,-3.4703,0.531,4.794,13.7627,-1.4611,-2.3133,-2.6501,2.4765,-3.6474,12.7622,75
-0.0849,-0.9898,-3.3611,-3.6813,0.607,4.2787,13.4962,-1.1247,-2.2641,-2.9435,2.5222,-3.8437,12.1561,76
-0.1061,-0.9898,-3.3611,-3.6813,0.607,4.2787,13.4962,-1.1247,-2.2641,-2.9435,2.5222,-3.8437,12.1561,77
-0.1305,-1.5543,-2.9813,-3.713,0.7409,3.8769,12.9515,-1.1775,-2.3237,-3.2484,2.4065,-3.872,11.7411,78
-0.1562,-1.5543,-2.9813,-3.713,0.7409,3.8769,12.9515,-1.1775,-2.3237,-3.2484,2.4065,-3.872,11.7411,79
-0.181,-2.0759,-2.0657,-3.6229,0.6831,3.6078,12.2882,-1.319,-2.5727,-3.6586,2.0971,-3.8279,11.5565,80
-0.2144,-2.0759,-2.0657,-3.6229,0.6831,3.6078,12.2882,-1.319,-2.5727,-3.6586,2.0971,-3.8279,11.5565,81
-0.238,-2.1008,-0.5525,-3.426,0.3012,3.4307,11.6256,-1.2438,-2.7257,-4.0711,1.696,-3.7024,11.4554,82
-0.2636,-2.1008,-0.5525,-3.426,0.3012,3.4307,11.6256,-1.2438,-2.7257,-4.0711,1.696,-3.7024,11.4554,83
-0.2858,-1.4448,1.084,-3.3849,-0.152,3.3705,11.1075,-0.8033,-2.3534,-4.2594,1.4056,-3.4895,11.3013,84
-0.3083,-1.4448,1.084,-3.3849,-0.152,3.3705,11.1075,-0.8033,-2.3534,-4.2594,1.4056,-3.4895,11.3013,85
-0.3313,-0.5688,1.9631,-3.6829,-0.2773,3.4145,10.773,-0.009,-1.36,-4.1,1.3027,-3.1827,11.0102,86
-0.3535,-0.5688,1.9631,-3.6829,-0.2773,3.4145,10.773,-0.009,-1.36,-4.1,1.3027,-3.1827,11.0102,87
-0.3728,0.1559,2.4,-4.0182,0.1094,3.4595,10.503,0.96,-0.247,-3.6516,1.3222,-2.7635,10.4948,88
-0.395,0.1559,2.4,-4.0182,0.1094,3.4595,10.503,0.96,-0.247,-3.6516,1.3222,-2.7635,10.4948,89
-0.4101,0.672,3.005,-4.0371,0.8334,3.419,10.1188,1.7217,0.4848,-3.0339,1.4776,-2.2444,9.6788,90
-0.4255,0.672,3.005,-4.0371,0.8334,3.419,10.1188,1.7217,0.4848,-3.0339,1.4776,-2.2444,9.6788,91
-0.4378,0.9355,3.4452,-3.7296,1.5026,3.2949,9.5174,1.9518,0.9029,-2.3781,1.8013,-1.7273,8.7275,92
-0.4528,0.9355,3.4452,-3.7296,1.5026,3.2949,9.5174,1.9518,0.9029,-2.3781,1.8013,-1.7273,8.7275,93
-0.465,1.0494,3.6048,-3.2505,1.8713,3.1134,8.7973,1.7351,1.1973,-1.8387,2.18,-1.3427,7.8828,94
-0.4759,1.0494,3.6048,-3.2505,1.8713,3.1134,8.7973,1.7351,1.1973,-1.8387,2.18,-1.3427,7.8828,95
-0.4859,1.1527,3.6256,-2.7684,1.9331,2.9083,8.1583,1.3487,1.3234,-1.48,2.4333,-1.1321,7.2484,96
-0.4941,1.1527,3.6256,-2.7684,1.9331,2.9083,8.1583,1.3487,1.3234,-1.48,2.4333,-1.1321,7.2484,97
-0.5005,1.1527,3.6256,-2.7684,1.9331,2.9083,8.1583,1.3487,1.3234,-1.48,2.4333,-1.1321,7.2484,98
-0.5037,1.2211,3.341,-2.3916,1.833,2.7362,7.7448,0.9444,1.0872,-1.1969,2.4552,-1.0684,6.8941,99
-0.5039,1.1964,2.6893,-2.0831,1.6969,2.6158,7.6253,0.5451,0.4756,-0.8484,2.3016,-1.1245,6.8565,0
-0.503,1.1964,2.6893,-2.0831,1.6969,2.6158,7.6253,0.5451,0.4756,-0.8484,2.3016,-1.1245,6.8565,1
-0.5012,1.1318,1.8278,-1.7322,1.5089,2.5628,7.7861,0.1191,-0.2674,-0.3801,2.1551,-1.2755,7.0786,2
-0.4954,1.1318,1.8278,-1.7322,1.5089,2.5628,7.7861,0.1191,-0.2674,-0.3801,2.1551,-1.2755,7.0786,3
-0.4869,1.1344,0.9189,-1.3029,1.2907,2.6205,8.1673,-0.3482,-0.8524,0.1664,2.1526,-1.5133,7.4846,4
-0.4731,1.1344,0.9189,-1.3029,1.2907,2.6205,8.1673,-0.3482,-0.8524,0.1664,2.1526,-1.5133,7.4846,5
-0.4557,1.1344,0.9189,-1.3029,1.2907,2.6205,8.1673,-0.3482,-0.8524,0.1664,2.1526,-1.5133,7.4846,6
-0.43,1.1946,0.0843,-0.8453,1.1185,2.7554,8.7164,-0.7652,-1.0784,0.6595,2.3312,-1.8438,8.0353,7
-0.4085,1.2689,-0.6226,-0.4089,1.0201,2.8752,9.3794,-1.0169,-1.0102,0.998,2.602,-2.2516,8.7103,8
-0.3856,1.2689,-0.6226,-0.4089,1.0201,2.8752,9.3794,-1.0169,-1.0102,0.998,2.602,-2.2516,8.7103,9
-0.3646,1.2689,-0.6226,-0.4089,1.0201,2.8752,9.3794,-1.0169,-1.0102,0.998,2.602,-2.2516,8.7103,10
-0.3496,1.3285,-1.3595,0.0261,1.0232,2.9974,10.1391,-1.0723,-0.9121,1.2086,2.845,-2.6995,9.4654,11
-0.3448,1.3418,-2.1623,0.5204,1.0993,3.1873,10.9796,-0.9405,-0.9677,1.3282,3.0896,-3.1256,10.222,12
-0.3481,1.3418,-2.1623,0.5204,1.0993,3.1873,10.9796,-0.9405,-0.9677,1.3282,3.0896,-3.1256,10.222,13
-0.3525,1.3581,-2.7169,1.0586,1.147,3.4251,11.7998,-0.6522,-1.167,1.3002,3.3863,-3.448,10.8897,13
-0.3567,1.3581,-2.7169,1.0586,1.147,3.4251,11.7998,-0.6522,-1.167,1.3002,3.3863,-3.448,10.8897,14
-0.3622,1.3429,-2.881,1.5357,1.1398,3.6815,12.4699,-0.2699,-1.3528,1.0566,3.6424,-3.6209,11.3575,15
-0.3665,1.3429,-2.881,1.5357,1.1398,3.6815,12.4699,-0.2699,-1.3528,1.0566,3.6424,-3.6209,11.3575,16
-0.3686,1.3429,-2.881,1.5357,1.1398,3.6815,12.4699,-0.2699,-1.3528,1.0566,3.6424,-3.6209,11.3575,17
-0.3682,1.1999,-2.837,1.8706,1.0983,3.9231,12.9076,0.0556,-1.4679,0.6671,3.7016,-3.6448,11.6388,18
-0.3667,0.9902,-2.8044,2.0844,1.0618,4.167,13.1379,0.1768,-1.6366,0.3499,3.5462,-3.5186,11.9366,19
-0.3634,0.9902,-2.8044,2.0844,1.0618,4.167,13.1379,0.1768,-1.6366,0.3499,3.5462,-3.5186,11.9366,20
-0.3586,0.932,-2.8075,2.2753,1.0909,4.536,13.2232,0.1654,-1.922,0.2757,3.3081,-3.2236,12.3093,21
-0.3547,0.932,-2.8075,2.2753,1.0909,4.536,13.2232,0.1654,-1.922,0.2757,3.3081,-3.2236,12.3093,22
-0.3523,0.9203,-2.5408,2.5784,1.1879,5.0512,13.0856,0.2466,-2.1636,0.4059,3.0727,-2.738,12.5268,23
-0.3536,0.9203,-2.5408,2.5784,1.1879,5.0512,13.0856,0.2466,-2.1636,0.4059,3.0727,-2.738,12.5268,24
-0.3555,0.9203,-2.5408,2.5784,1.1879,5.0512,13.0856,0.2466,-2.1636,0.4059,3.0727,-2.738,12.5268,25
-0.3563,0.5909,-1.5626,3.106,1.3547,5.5345,12.6733,0.4296,-2.2153,0.6444,2.835,-2.1156,12.4945,26
-0.3531,0.1854,0.092,3.7966,1.5359,5.8923,12.2237,0.5145,-2.0769,1.0035,2.6421,-1.5751,12.4146,27
-0.3415,0.1854,0.092,3.7966,1.5359,5.8923,12.2237,0.5145,-2.0769,1.0035,2.6421,-1.5751,12.4146,28
-0.3278,-0.015,1.6196,4.3908,1.4926,6.2393,11.9921,0.5469,-1.6203,1.4297,2.487,-1.3124,12.3885,29
-0.3113,-0.015,1.6196,4.3908,1.4926,6.2393,11.9921,0.5469,-1.6203,1.4297,2.487,-1.3124,12.3885,30
-0.2893,-0.3387,2.233,4.7308,1.0501,6.5623,11.9452,0.7008,-0.8173,1.8355,2.1642,-1.2585,12.3441,31
-0.273,-0.3387,2.233,4.7308,1.0501,6.5623,11.9452,0.7008,-0.8173,1.8355,2.1642,-1.2585,12.3441,32
-0.2565,-0.9314,1.8407,4.8381,0.3825,6.7011,11.9175,0.8875,-0.0189,2.3428,1.6459,-1.2338,12.2265,33
-0.242,-0.9314,1.8407,4.8381,0.3825,6.7011,11.9175,0.8875,-0.0189,2.3428,1.6459,-1.2338,12.2265,34
-0.2284,-1.4617,0.9845,4.7447,-0.135,6.5862,11.8022,1.0127,0.5086,3.0538,1.2901,-1.2234,11.9746,35
-0.211,-1.4617,0.9845,4.7447,-0.135,6.5862,11.8022,1.0127,0.5086,3.0538,1.2901,-1.2234,11.9746,36
-0.1956,-1.4617,0.9845,4.7447,-0.135,6.5862,11.8022,1.0127,0.5086,3.0538,1.2901,-1.2234,11.9746,37
-0.1788,-1.7074,0.36,4.5148,-0.3,6.2197,11.5495,1.2645,0.8582,3.7775,1.3922,-1.304,11.4792,38
-0.1616,-1.7074,0.36,4.5148,-0.3,6.2197,11.5495,1.2645,0.8582,3.7775,1.3922,-1.304,11.4792,38
-0.1439,-1.7997,0.1885,4.1743,-0.2,5.6608,11.0903,1.7824,1.3334,4.2046,1.8908,-1.3995,10.6533,39
-0.1269,-1.7997,0.1885,4.1743,-0.2,5.6608,11.0903,1.7824,1.3334,4.2046,1.8908,-1.3995,10.6533,40
-0.11,-1.8912,0.2262,3.6771,0.0331,5.0115,10.3857,2.3625,2.202,4.186,2.521,-1.3842,9.5757,41
-0.0943,-1.8912,0.2262,3.6771,0.0331,5.0115,10.3857,2.3625,2.202,4.186,2.521,-1.3842,9.5757,42
-0.0769,-2.0351,0.166,3.0563,0.3596,4.352,9.553,2.7392,3.4398,3.8123,2.9968,-1.2574,8.4656,43
-0.0634,-2.0351,0.166,3.0563,0.3596,4.352,9.553,2.7392,3.4398,3.8123,2.9968,-1.2574,8.4656,44
-0.0506,-2.3058,-0.1285,2.3866,0.7509,3.7417,8.7415,2.7856,4.7016,3.2986,3.1896,-1.0588,7.5524,45
-0.0405,-2.3058,-0.1285,2.3866,0.7509,3.7417,8.7415,2.7856,4.7016,3.2986,3.1896,-1.0588,7.5524,46
-0.0302,-2.5446,-0.4557,1.7416,1.1286,3.2516,8.0346,2.4282,5.5874,2.8045,3.1698,-0.8079,7.0058,47
-0.0212,-2.5446,-0.4557,1.7416,1.1286,3.2516,8.0346,2.4282,5.5874,2.8045,3.1698,-0.8079,7.0058,48
-0.0127,-2.3298,-0.5129,1.1917,1.4128,2.9653,7.5543,1.7019,5.954,2.3575,3.0492,-0.5614,6.8787,49
-0.0053,-2.3298,-0.5129,1.1917,1.4128,2.9653,7.5543,1.7019,5.954,2.3575,3.0492,-0.5614,6.8787,50
0.0035,-2.3298,-0.5129,1.1917,1.4128,2.9653,7.5543,1.7019,5.954,2.3575,3.0492,-0.5614,6.8787,51
0.0161,-0.2384,-0.0399,0.3814,1.7535,3.0355,7.5711,-0.049,5.1494,1.5868,2.6482,-0.4561,7.6933,52
0.0249,-0.2384,-0.0399,0.3814,1.7535,3.0355,7.5711,-0.049,5.1494,1.5868,2.6482,-0.4561,7.6933,53
0.0333,0.9791,0.2855,0.1975,1.7956,3.3261,8.0315,-0.6264,4.1276,1.3029,2.4201,-0.6007,8.4006,54
0.0459,0.9791,0.2855,0.1975,1.7956,3.3261,8.0315,-0.6264,4.1276,1.3029,2.4201,-0.6007,8.4006,55
0.0534,1.8082,0.534,0.1284,1.7704,3.7148,8.6374,-0.9581,2.9662,1.0889,2.2997,-0.7264,9.1266,56
0.0618,1.8082,0.534,0.1284,1.7704,3.7148,8.6374,-0.9581,2.9662,1.0889,2.2997,-0.7264,9.1266,57
0.071,2.1111,0.5792,0.0641,1.7623,4.1602,9.2289,-1.1581,1.9019,0.9985,2.3436,-0.7591,9.794,58
0.0821,2.1111,0.5792,0.0641,1.7623,4.1602,9.2289,-1.1581,1.9019,0.9985,2.3436,-0.7591,9.794,59
0.092,1.993,0.4593,-0.0283,1.7732,4.6566,9.7742,-1.3889,1.0382,0.9512,2.4455,-0.7123,10.3673,60
0.1016,1.993,0.4593,-0.0283,1.7732,4.6566,9.7742,-1.3889,1.0382,0.9512,2.4455,-0.7123,10.3673,61
0.1099,1.6064,0.1939,-0.1568,1.6965,5.1535,10.2987,-1.6714,0.3075,0.6295,2.4348,-0.6716,10.8679,62
0.1179,1.6064,0.1939,-0.1568,1.6965,5.1535,10.2987,-1.6714,0.3075,0.6295,2.4348,-0.6716,10.8679,63
0.1248,1.0932,-0.2036,-0.3432,1.5032,5.5496,10.7826,-1.8559,-0.3878,0.0239,2.3034,-0.7261,11.3228,63
0.1302,1.0932,-0.2036,-0.3432,1.5032,5.5496,10.7826,-1.8559,-0.3878,0.0239,2.3034,-0.7261,11.3228,64
0.1338,0.6107,-0.6344,-0.6094,1.3209,5.7756,11.1755,-1.824,-1.0025,-0.6256,2.178,-0.8614,11.6626,65
0.1357,0.6107,-0.6344,-0.6094,1.3209,5.7756,11.1755,-1.824,-1.0025,-0.6256,2.178,-0.8614,11.6626,66
0.1351,0.2421,-1.0425,-0.937,1.1864,5.8639,11.5128,-1.6799,-1.4598,-1.221,2.1283,-1.0351,11.8769,67
0.1345,0.2421,-1.0425,-0.937,1.1864,5.8639,11.5128,-1.6799,-1.4598,-1.221,2.1283,-1.0351,11.8769,68
0.1315,0.2421,-1.0425,-0.937,1.1864,5.8639,11.5128,-1.6799,-1.4598,-1.221,2.1283,-1.0351,11.8769,69
0.1226,0.0474,-1.2822,-1.3134,0.9835,5.8915,11.9933,-1.721,-1.8121,-1.7579,2.1466,-1.3604,12.1852,70
0.1047,0.0351,-1.1869,-1.8313,0.7241,5.8466,12.761,-2.0076,-2.1377,-2.2413,2.1986,-2.0055,12.7373,71
0.082,0.0351,-1.1869,-1.8313,0.7241,5.8466,12.761,-2.0076,-2.1377,-2.2413,2.1986,-2.0055,12.7373,72
0.0535,0.0046,-1.0563,-2.5387,0.5561,5.674,13.6355,-2.1221,-2.3192,-2.6987,2.2666,-2.8513,13.2273,73
0.0191,0.0046,-1.0563,-2.5387,0.5561,5.674,13.6355,-2.1221,-2.3192,-2.6987,2.2666,-2.8513,13.2273,74
-0.0066,-0.3279,-1.3721,-3.2623,0.5676,5.3475,14.1978,-1.7995,-1.9808,-3.1838,2.3884,-3.5219,13.2206,75
-0.0302,-0.3279,-1.3721,-3.2623,0.5676,5.3475,14.1978,-1.7995,-1.9808,-3.1838,2.3884,-3.5219,13.2206,76
-0.0543,-0.3279,-1.3721,-3.2623,0.5676,5.3475,14.1978,-1.7995,-1.9808,-3.1838,2.3884,-3.5219,13.2206,77
-0.0793,-1.0115,-1.9452,-3.7251,0.7672,4.8731,14.1706,-1.4369,-1.2487,-3.6435,2.5007,-3.8213,12.758,78
-0.1045,-1.8127,-2.0635,-3.8,1.019,4.3563,13.5899,-1.3061,-0.9317,-4.0146,2.4001,-3.886,12.1776,79
-0.1318,-1.8127,-2.0635,-3.8,1.019,4.3563,13.5899,-1.3061,-0.9317,-4.0146,2.4001,-3.886,12.1776,80
-0.1623,-2.558,-1.681,-3.5456,1.0093,3.9044,12.6248,-1.1497,-1.4997,-4.3324,1.9782,-3.8222,11.6499,81
-0.1943,-2.558,-1.681,-3.5456,1.0093,3.9044,12.6248,-1.1497,-1.4997,-4.3324,1.9782,-3.8222,11.6499,82
-0.2193,-3.0327,-1.0585,-3.1329,0.5837,3.5471,11.5409,-0.7588,-2.4241,-4.5445,1.3796,-3.598,11.1934,83
-0.2444,-3.0327,-1.0585,-3.1329,0.5837,3.5471,11.5409,-0.7588,-2.4241,-4.5445,1.3796,-3.598,11.1934,84
-0.2758,-2.7832,0.0131,-2.8877,0.039,3.3126,10.6728,-0.1164,-2.7018,-4.5054,0.9063,-3.2633,10.8352,85
-0.3003,-2.7832,0.0131,-2.8877,0.039,3.3126,10.6728,-0.1164,-2.7018,-4.5054,0.9063,-3.2633,10.8352,86
-0.3258,-1.8431,1.1498,-3.0306,-0.2044,3.233,10.1638,0.6639,-2.3158,-4.1332,0.7545,-2.8859,10.5712,87
-0.349,-1.8431,1.1498,-3.0306,-0.2044,3.233,10.1638,0.6639,-2.3158,-4.1332,0.7545,-2.8859,10.5712,88
-0.3713,-0.9526,1.7364,-3.3559,0.0309,3.2799,9.8909,1.4193,-1.8831,-3.5123,0.9175,-2.507,10.2893,88
-0.3907,-0.9526,1.7364,-3.3559,0.0309,3.2799,9.8909,1.4193,-1.8831,-3.5123,0.9175,-2.507,10.2893,89
-0.4086,-0.3701,2.2625,-3.4999,0.633,3.3481,9.6362,2.0034,-1.3954,-2.811,1.2476,-2.1451,9.8354,90
-0.425,-0.3701,2.2625,-3.4999,0.633,3.3481,9.6362,2.0034,-1.3954,-2.811,1.2476,-2.1451,9.8354,91
-0.4419,0.0707,3.15,-3.3283,1.2865,3.3336,9.2524,2.2742,-0.6948,-2.1453,1.6314,-1.7964,9.1779,92
-0.4563,0.263,3.7712,-2.9574,1.7496,3.2052,8.7757,2.1943,0.0262,-1.6059,2.0461,-1.5154,8.4499,93
-0.473,0.263,3.7712,-2.9574,1.7496,3.2052,8.7757,2.1943,0.0262,-1.6059,2.0461,-1.5154,8.4499,94
-0.4844,0.263,3.7712,-2.9574,1.7496,3.2052,8.7757,2.1943,0.0262,-1.6059,2.0461,-1.5154,8.4499,95
-0.4961,0.4141,3.8238,-2.5481,1.9747,3.0092,8.3603,1.778,0.5837,-1.2333,2.391,-1.3348,7.812,96
-0.5054,0.7257,3.5405,-2.1722,1.9654,2.8344,8.0988,1.0875,0.9223,-0.9642,2.5584,-1.2402,7.3725,97
-0.5134,0.7257,3.5405,-2.1722,1.9654,2.8344,8.0988,1.0875,0.9223,-0.9642,2.5584,-1.2402,7.3725,98
-0.5192,0.7257,3.5405,-2.1722,1.9654,2.8344,8.0988,1.0875,0.9223,-0.9642,2.5584,-1.2402,7.3725,99
-0.5219,1.035,2.9263,-1.8595,1.7636,2.7282,8.0201,0.3244,0.9566,-0.7147,2.5628,-1.2535,7.1663,0
-0.5212,1.2105,2.064,-1.58,1.5085,2.6767,8.1387,-0.306,0.6702,-0.4509,2.4809,-1.3771,7.1779,1
-0.5191,1.2105,2.064,-1.58,1.5085,2.6767,8.1387,-0.306,0.6702,-0.4509,2.4809,-1.3771,7.1779,2
-0.5156,1.2105,2.064,-1.58,1.5085,2.6767,8.1387,-0.306,0.6702,-0.4509,2.4809,-1.3771,7.1779,3
-0.5088,1.2061,1.1972,-1.2686,1.308,2.6799,8.4322,-0.7713,0.1787,-0.1371,2.3972,-1.5566,7.3783,4
-0.4979,1.2061,1.1972,-1.2686,1.308,2.6799,8.4322,-0.7713,0.1787,-0.1371,2.3972,-1.5566,7.3783,5
-0.4828,1.0751,0.5567,-0.9241,1.1673,2.7278,8.8306,-1.097,-0.309,0.2337,2.4009,-1.7771,7.7523,6
-0.4646,1.0751,0.5567,-0.9241,1.1673,2.7278,8.8306,-1.097,-0.309,0.2337,2.4009,-1.7771,7.7523,7
-0.4454,0.9591,0.1263,-0.5656,1.108,2.7719,9.2813,-1.2745,-0.5827,0.5897,2.5347,-2.056,8.303,8
-0.4263,0.9591,0.1263,-0.5656,1.108,2.7719,9.2813,-1.2745,-0.5827,0.5897,2.5347,-2.056,8.303,9
-0.4055,0.9872,-0.4688,-0.227,1.1393,2.8037,9.8015,-1.3399,-0.6196,0.8879,2.7277,-2.4147,8.9877,10
-0.389,0.9872,-0.4688,-0.227,1.1393,2.8037,9.8015,-1.3399,-0.6196,0.8879,2.7277,-2.4147,8.9877,11
-0.3765,1.1115,-1.3973,0.0743,1.189,2.8682,10.4167,-1.2977,-0.6013,1.1368,2.8868,-2.8436,9.7318,12
-0.3727,1.1115,-1.3973,0.0743,1.189,2.8682,10.4167,-1.2977,-0.6013,1.1368,2.8868,-2.8436,9.7318,13
-0.3731,1.1878,-2.3596,0.4189,1.2119,3.0037,11.1031,-1.0993,-0.7598,1.3081,3.0246,-3.2422,10.4519,14
-0.3734,1.1878,-2.3596,0.4189,1.2119,3.0037,11.1031,-1.0993,-0.7598,1.3081,3.0246,-3.2422,10.4519,15
-0.3736,1.1878,-2.3596,0.4189,1.2119,3.0037,11.1031,-1.0993,-0.7598,1.3081,3.0246,-3.2422,10.4519,16
-0.3743,1.1729,-2.9557,0.8486,1.2122,3.2101,11.7669,-0.7226,-1.1411,1.3222,3.1873,-3.5308,11.0236,17
-0.375,1.1729,-2.9557,0.8486,1.2122,3.2101,11.7669,-0.7226,-1.1411,1.3222,3.1873,-3.5308,11.0236,18
-0.3751,1.0928,-3.1007,1.2773,1.2151,3.4265,12.2886,-0.2766,-1.5933,1.1508,3.306,-3.7051,11.4302,19
-0.3749,1.0389,-3.0081,1.6486,1.2739,3.6535,12.69,0.0086,-2.0651,0.9501,3.2904,-3.769,11.9094,20
-0.372,1.0389,-3.0081,1.6486,1.2739,3.6535,12.69,0.0086,-2.0651,0.9501,3.2904,-3.769,11.9094,21
-0.3679,1.1607,-2.7605,2.031,1.3772,4.0661,13.0917,0.1216,-2.5407,0.9485,3.2025,-3.6901,12.6306,22
-0.3645,1.1607,-2.7605,2.031,1.3772,4.0661,13.0917,0.1216,-2.5407,0.9485,3.2025,-3.6901,12.6306,23
-0.3643,1.4148,-2.0013,2.5603,1.4495,4.757,13.3984,0.3386,-2.7521,1.1552,3.1367,-3.3749,13.3229,24
-0.3671,1.4148,-2.0013,2.5603,1.4495,4.757,13.3984,0.3386,-2.7521,1.1552,3.1367,-3.3749,13.3229,25
-0.3697,1.6169,-0.0247,3.3407,1.5112,5.5446,13.3749,0.768,-2.3221,1.3771,3.0781,-2.7576,13.6004,26
-0.3697,1.6169,-0.0247,3.3407,1.5112,5.5446,13.3749,0.768,-2.3221,1.3771,3.0781,-2.7576,13.6004,27
-0.3659,1.8856,3.0437,4.2757,1.5567,6.2485,13.0243,1.1894,-1.3386,1.4873,2.9953,-1.9985,13.4287,28
-0.3556,1.8856,3.0437,4.2757,1.5567,6.2485,13.0243,1.1894,-1.3386,1.4873,2.9953,-1.9985,13.4287,29
-0.3399,2.0306,4.8503,4.9007,1.3237,6.8127,12.505,1.4525,-0.3189,1.4949,2.7785,-1.3931,12.9495,30
-0.32,2.0306,4.8503,4.9007,1.3237,6.8127,12.505,1.4525,-0.3189,1.4949,2.7785,-1.3931,12.9495,31
-0.3015,1.4756,3.5851,4.9429,0.6739,7.0824,11.9675,1.5891,0.4324,1.5332,2.2637,-1.0428,12.315,32
-0.2818,1.4756,3.5851,4.9429,0.6739,7.0824,11.9675,1.5891,0.4324,1.5332,2.2637,-1.0428,12.315,33
-0.2663,0.5091,1.2703,4.7201,-0.0703,6.9479,11.5445,1.6165,0.8244,1.8473,1.5838,-0.8777,11.7208,34
-0.2541,0.5091,1.2703,4.7201,-0.0703,6.9479,11.5445,1.6165,0.8244,1.8473,1.5838,-0.8777,11.7208,35
-0.2418,-0.2898,0.2518,4.4492,-0.5603,6.5501,11.2135,1.6188,0.9493,2.5154,1.1404,-0.8622,11.2376,36
-0.2293,-0.2898,0.2518,4.4492,-0.5603,6.5501,11.2135,1.6188,0.9493,2.5154,1.1404,-0.8622,11.2376,37
-0.2161,-0.9033,0.2533,4.0435,-0.7623,6.0696,10.8998,1.7676,1.1302,3.2513,1.2054,-0.9934,10.7892,38
-0.2022,-0.9033,0.2533,4.0435,-0.7623,6.0696,10.8998,1.7676,1.1302,3.2513,1.2054,-0.9934,10.7892,39
-0.1872,-1.4494,0.5302,3.4368,-0.7754,5.5817,10.5582,2.1237,1.6715,3.6426,1.7112,-1.172,10.2373,40
-0.1746,-1.4494,0.5302,3.4368,-0.7754,5.5817,10.5582,2.1237,1.6715,3.6426,1.7112,-1.172,10.2373,41
-0.1583,-1.9675,0.8209,2.661,-0.6549,5.0891,10.0887,2.5604,2.6877,3.4926,2.3471,-1.2398,9.4729,42
-0.145,-2.4964,0.7495,1.8441,-0.3977,4.5867,9.4581,2.8579,3.9239,2.9274,2.7983,-1.1495,8.6102,43
-0.1291,-2.4964,0.7495,1.8441,-0.3977,4.5867,9.4581,2.8579,3.9239,2.9274,2.7983,-1.1495,8.6102,44
-0.117,-2.9541,0.1987,1.1317,0.0276,4.081,8.7724,2.8371,4.9339,2.2413,2.9511,-0.9493,7.8824,45
-0.0972,-2.9541,0.1987,1.1317,0.0276,4.081,8.7724,2.8371,4.9339,2.2413,2.9511,-0.9493,7.8824,46
-0.0858,-2.9679,-0.4379,0.616,0.5613,3.6375,8.1808,2.4252,5.4739,1.6708,2.858,-0.7011,7.4021,47
-0.0757,-2.9679,-0.4379,0.616,0.5613,3.6375,8.1808,2.4252,5.4739,1.6708,2.858,-0.7011,7.4021,48
-0.0633,-2.2335,-0.6822,0.3141,1.0415,3.3873,7.8141,1.6993,5.5265,1.2923,2.6088,-0.4876,7.2308,49
-0.0494,-0.9095,-0.3748,0.1828,1.3353,3.3702,7.7313,0.8961,5.1932,1.0621,2.3443,-0.3546,7.3702,50
-0.0322,-0.9095,-0.3748,0.1828,1.3353,3.3702,7.7313,0.8961,5.1932,1.0621,2.3443,-0.3546,7.3702,50
-0.0197,0.4592,0.1484,0.1152,1.4215,3.528,7.8938,0.2586,4.6067,0.8956,2.1821,-0.279,7.7159,51
-0.006,0.4592,0.1484,0.1152,1.4215,3.528,7.8938,0.2586,4.6067,0.8956,2.1821,-0.279,7.7159,52
0.006,1.3375,0.3967,-0.0026,1.4008,3.805,8.2148,-0.0993,3.9184,0.7163,2.1481,-0.2385,8.1728,53
0.0163,1.3375,0.3967,-0.0026,1.4008,3.805,8.2148,-0.0993,3.9184,0.7163,2.1481,-0.2385,8.1728,54
0.0255,1.3375,0.3967,-0.0026,1.4008,3.805,8.2148,-0.0993,3.9184,0.7163,2.1481,-0.2385,8.1728,55
0.0352,1.5844,0.259,-0.183,1.3882,4.1255,8.6027,-0.3045,3.2235,0.4896,2.1974,-0.2199,8.6919,56
0.0439,1.5844,0.259,-0.183,1.3882,4.1255,8.6027,-0.3045,3.2235,0.4896,2.1974,-0.2199,8.6919,57
0.0525,1.3917,-0.055,-0.3509,1.4421,4.4309,9.0374,-0.6266,2.458,0.2127,2.1886,-0.2384,9.2828,58
0.0609,1.3917,-0.055,-0.3509,1.4421,4.4309,9.0374,-0.6266,2.458,0.2127,2.1886,-0.2384,9.2828,59
0.0694,1.0242,-0.3714,-0.441,1.5481,4.728,9.562,-1.1088,1.5377,-0.1033,2.0164,-0.3614,9.9587,60
0.0778,1.0242,-0.3714,-0.441,1.5481,4.728,9.562,-1.1088,1.5377,-0.1033,2.0164,-0.3614,9.9587,61
0.0859,0.6827,-0.6709,-0.4536,1.6395,5.0249,10.1647,-1.561,0.4141,-0.3951,1.7589,-0.5869,10.6692,62
0.0927,0.6827,-0.6709,-0.4536,1.6395,5.0249,10.1647,-1.561,0.4141,-0.3951,1.7589,-0.5869,10.6692,63
0.0989,0.4307,-1.0516,-0.4343,1.6988,5.314,10.7696,-1.802,-0.859,-0.561,1.582,-0.815,11.3183,64
0.103,0.4307,-1.0516,-0.4343,1.6988,5.314,10.7696,-1.802,-0.859,-0.561,1.582,-0.815,11.3183,65
0.1043,0.2471,-1.467,-0.3866,1.7344,5.5893,11.2803,-1.7709,-2.0036,-0.6142,1.5802,-0.9563,11.804,66
0.1039,0.0691,-1.7357,-0.2776,1.6394,5.8561,11.7011,-1.6317,-2.7736,-0.7116,1.716,-1.011,12.1341,67
0.1021,0.0691,-1.7357,-0.2776,1.6394,5.8561,11.7011,-1.6317,-2.7736,-0.7116,1.716,-1.011,12.1341,68
0.0958,-0.0878,-1.9739,-0.2501,1.3064,6.0765,12.1947,-1.6718,-3.2357,-0.9601,1.941,-1.191,12.4235,69
0.0821,-0.0878,-1.9739,-0.2501,1.3064,6.0765,12.1947,-1.6718,-3.2357,-0.9601,1.941,-1.191,12.4235,70
0.0533,-0.1803,-2.2094,-0.5045,0.8587,6.0798,12.7858,-1.8684,-3.4944,-1.3681,2.1968,-1.7205,12.6693,71
0.0267,-0.1803,-2.2094,-0.5045,0.8587,6.0798,12.7858,-1.8684,-3.4944,-1.3681,2.1968,-1.7205,12.6693,72
-0.0054,-0.4057,-2.3802,-0.988,0.4796,5.7368,13.1949,-1.869,-3.4748,-1.9075,2.3574,-2.433,12.6485,73
-0.0331,-0.4057,-2.3802,-0.988,0.4796,5.7368,13.1949,-1.869,-3.4748,-1.9075,2.3574,-2.433,12.6485,74
-0.0602,-0.8928,-2.8077,-1.5096,0.2576,5.1545,13.2171,-1.6644,-3.2251,-2.4658,2.3562,-2.98,12.3062,75
-0.0876,-0.8928,-2.8077,-1.5096,0.2576,5.1545,13.2171,-1.6644,-3.2251,-2.4658,2.3562,-2.98,12.3062,76
-0.1118,-1.4003,-3.2192,-1.8894,0.2977,4.5839,13.0171,-1.6414,-3.0111,-2.8766,2.1823,-3.3426,12.002,77
-0.1381,-1.4003,-3.2192,-1.8894,0.2977,4.5839,13.0171,-1.6414,-3.0111,-2.8766,2.1823,-3.3426,12.002,78
-0.1689,-1.7587,-2.891,-2.021,0.5087,4.2276,12.7778,-1.6919,-3.1893,-3.0879,1.8482,-3.6485,11.9845,79
-0.2018,-2.0618,-2.0767,-1.8618,0.4769,4.0929,12.4706,-1.3271,-4.0586,-3.149,1.4467,-3.7736,12.0945,80
-0.2512,-2.0618,-2.0767,-1.8618,0.4769,4.0929,12.4706,-1.3271,-4.0586,-3.149,1.4467,-3.7736,12.0945,81
-0.2797,-2.129,-1.0096,-1.643,0.0953,4.0332,12.0715,-0.5623,-5.0544,-3.0894,1.2239,-3.6145,12.0529,82
-0.3077,-2.129,-1.0096,-1.643,0.0953,4.0332,12.0715,-0.5623,-5.0544,-3.0894,1.2239,-3.6145,12.0529,83
-0.3331,-1.7274,0.4326,-1.8474,-0.2084,3.9374,11.5895,0.2288,-4.9155,-2.9245,1.3704,-3.2465,11.68,84
-0.3567,-1.7274,0.4326,-1.8474,-0.2084,3.9374,11.5895,0.2288,-4.9155,-2.9245,1.3704,-3.2465,11.68,85
-0.3735,-1.2026,1.5891,-2.473,-0.1017,3.8023,10.9869,0.8033,-3.1413,-2.6689,1.7494,-2.7473,10.9831,86
-0.3881,-1.2026,1.5891,-2.473,-0.1017,3.8023,10.9869,0.8033,-3.1413,-2.6689,1.7494,-2.7473,10.9831,87
-0.4011,-1.2026,1.5891,-2.473,-0.1017,3.8023,10.9869,0.8033,-3.1413,-2.6689,1.7494,-2.7473,10.9831,88
-0.4131,-0.8314,2.485,-3.0261,0.4236,3.6222,10.2331,1.1787,-0.5302,-2.3527,2.1283,-2.184,10.0845,89
-0.4245,-0.8314,2.485,-3.0261,0.4236,3.6222,10.2331,1.1787,-0.5302,-2.3527,2.1283,-2.184,10.0845,90
-0.436,-0.481,3.5753,-3.1692,1.1231,3.3875,9.3375,1.419,1.5329,-1.998,2.4022,-1.6349,9.1225,91
-0.4494,-0.481,3.5753,-3.1692,1.1231,3.3875,9.3375,1.419,1.5329,-1.998,2.4022,-1.6349,9.1225,92
-0.4601,-0.0701,4.3636,-2.9335,1.6739,3.1501,8.3913,1.5079,2.3548,-1.637,2.5775,-1.1877,8.2594,93
-0.4729,-0.0701,4.3636,-2.9335,1.6739,3.1501,8.3913,1.5079,2.3548,-1.637,2.5775,-1.1877,8.2594,94
-0.4847,0.412,4.6246,-2.55,1.9568,2.9725,7.6065,1.5298,2.1671,-1.3369,2.6882,-0.8779,7.5959,95
-0.4952,0.412,4.6246,-2.55,1.9568,2.9725,7.6065,1.5298,2.1671,-1.3369,2.6882,-0.8779,7.5959,96
-0.5043,0.9144,4.6273,-2.2341,1.9763,2.8673,7.1612,1.4878,1.5092,-1.1099,2.7104,-0.6888,7.1317,97
-0.5124,0.9144,4.6273,-2.2341,1.9763,2.8673,7.1612,1.4878,1.5092,-1.1099,2.7104,-0.6888,7.1317,98
-0.5183,1.3288,4.3749,-2.0623,1.7913,2.8174,7.1153,1.2592,0.7766,-0.8796,2.6168,-0.6263,6.902,99
-0.5214,1.3288,4.3749,-2.0623,1.7913,2.8174,7.1153,1.2592,0.7766,-0.8796,2.6168,-0.6263,6.902,0
-0.5202,1.6336,3.607,-1.9397,1.5207,2.8544,7.4485,0.8516,0.1068,-0.5701,2.4675,-0.7056,6.9806,1
-0.5182,1.6336,3.607,-1.9397,1.5207,2.8544,7.4485,0.8516,0.1068,-0.5701,2.4675,-0.7056,6.9806,2
-0.5136,1.8491,2.3004,-1.7474,1.2667,2.9881,8.0429,0.3467,-0.3785,-0.1831,2.386,-0.9177,7.33,3
-0.5052,1.8491,2.3004,-1.7474,1.2667,2.9881,8.0429,0.3467,-0.3785,-0.1831,2.386,-0.9177,7.33,4
-0.4922,1.9181,0.8254,-1.4887,1.0918,3.1425,8.7556,-0.2028,-0.6212,0.218,2.4414,-1.2409,7.8265,5
-0.4753,1.9181,0.8254,-1.4887,1.0918,3.1425,8.7556,-0.2028,-0.6212,0.218,2.4414,-1.2409,7.8265,6
-0.4523,1.9181,0.8254,-1.4887,1.0918,3.1425,8.7556,-0.2028,-0.6212,0.218,2.4414,-1.2409,7.8265,7
-0.4281,1.8271,-0.5132,-1.2074,1.0197,3.246,9.5053,-0.7505,-0.6616,0.5336,2.5822,-1.6479,8.4324,8
-0.4036,1.6658,-1.718,-1.0159,1.0609,3.2867,10.2718,-1.2214,-0.5845,0.7221,2.7316,-2.1347,9.1615,9
-0.3788,1.6658,-1.718,-1.0159,1.0609,3.2867,10.2718,-1.2214,-0.5845,0.7221,2.7316,-2.1347,9.1615,10
-0.3603,1.4979,-2.7218,-0.8529,1.1918,3.2943,11.0487,-1.5031,-0.6399,0.8459,2.8802,-2.684,9.9656,11
-0.349,1.4979,-2.7218,-0.8529,1.1918,3.2943,11.0487,-1.5031,-0.6399,0.8459,2.8802,-2.684,9.9656,12
-0.3499,1.3298,-3.2419,-0.3862,1.3257,3.3387,11.7978,-1.5107,-1.0099,0.9302,3.0515,-3.1911,10.7452,13
-0.3526,1.3298,-3.2419,-0.3862,1.3257,3.3387,11.7978,-1.5107,-1.0099,0.9302,3.0515,-3.1911,10.7452,13
-0.356,1.1102,-3.1893,0.3642,1.4056,3.4781,12.4334,-1.2229,-1.513,0.9162,3.2419,-3.5405,11.3501,14
-0.3603,1.1102,-3.1893,0.3642,1.4056,3.4781,12.4334,-1.2229,-1.513,0.9162,3.2419,-3.5405,11.3501,15
-0.3649,1.1102,-3.1893,0.3642,1.4056,3.4781,12.4334,-1.2229,-1.513,0.9162,3.2419,-3.5405,11.3501,16
-0.368,0.7942,-2.8022,1.0987,1.4393,3.6614,12.8494,-0.7445,-1.8729,0.7845,3.3455,-3.68,11.7155,17
-0.3679,0.4552,-2.3861,1.6856,1.4439,3.854,13.04,-0.3336,-2.0947,0.6749,3.2928,-3.6178,12.0165,18
-0.3664,0.4552,-2.3861,1.6856,1.4439,3.854,13.04,-0.3336,-2.0947,0.6749,3.2928,-3.6178,12.0165,19
-0.3656,0.4552,-2.3861,1.6856,1.4439,3.854,13.04,-0.3336,-2.0947,0.6749,3.2928,-3.6178,12.0165,20
-0.3645,0.2486,-2.0276,2.1655,1.4474,4.1781,13.1205,-0.1551,-2.2923,0.7676,3.1848,-3.3928,12.4606,21
-0.3639,0.1952,-1.5532,2.6958,1.4545,4.7535,13.1331,-0.0491,-2.3122,1.0363,3.0623,-2.9843,12.9403,22
-0.3646,0.1952,-1.5532,2.6958,1.4545,4.7535,13.1331,-0.0491,-2.3122,1.0363,3.0623,-2.9843,12.9403,23
-0.3647,0.139,-0.4829,3.4121,1.4207,5.4861,12.9582,0.1811,-2.0007,1.3087,2.8585,-2.3221,13.1474,24
-0.3644,0.139,-0.4829,3.4121,1.4207,5.4861,12.9582,0.1811,-2.0007,1.3087,2.8585,-2.3221,13.1474,25
-0.3637,0.0825,1.5435,4.2531,1.2911,6.1791,12.5789,0.4232,-1.4952,1.4958,2.6296,-1.5268,13.0277,26
-0.3598,0.0825,1.5435,4.2531,1.2911,6.1791,12.5789,0.4232,-1.4952,1.4958,2.6296,-1.5268,13.0277,27
-0.3509,0.0457,3.4179,4.8773,0.996,6.7003,12.1925,0.5961,-0.9771,1.6028,2.3907,-0.9326,12.726,28
-0.337,0.0457,3.4179,4.8773,0.996,6.7003,12.1925,0.5961,-0.9771,1.6028,2.3907,-0.9326,12.726,29
-0.3194,-0.1527,3.5271,5.0408,0.4955,6.9173,11.9063,0.8127,-0.522,1.7205,1.9652,-0.6977,12.3421,30
-0.2979,-0.1527,3.5271,5.0408,0.4955,6.9173,11.9063,0.8127,-0.522,1.7205,1.9652,-0.6977,12.3421,31
-0.2776,-0.4796,2.1948,4.8901,-0.0777,6.7953,11.6721,1.0131,-0.123,2.0745,1.3962,-0.6872,11.9668,32
-0.2604,-0.4796,2.1948,4.8901,-0.0777,6.7953,11.6721,1.0131,-0.123,2.0745,1.3962,-0.6872,11.9668,33
-0.246,-0.4796,2.1948,4.8901,-0.0777,6.7953,11.6721,1.0131,-0.123,2.0745,1.3962,-0.6872,11.9668,34
-0.2336,-0.7812,0.884,4.5974,-0.4578,6.4715,11.4399,1.0967,0.2981,2.7549,1.0946,-0.7772,11.6261,35
-0.2209,-0.7812,0.884,4.5974,-0.4578,6.4715,11.4399,1.0967,0.2981,2.7549,1.0946,-0.7772,11.6261,36
-0.2067,-1.0867,0.2847,4.1654,-0.5306,6.0522,11.1622,1.2036,0.8783,3.4864,1.3595,-0.9531,11.2114,37
-0.1894,-1.47,0.1482,3.5613,-0.3858,5.5529,10.7762,1.4892,1.7446,3.882,2.0128,-1.1366,10.5564,38
-0.1732,-1.47,0.1482,3.5613,-0.3858,5.5529,10.7762,1.4892,1.7446,3.882,2.0128,-1.1366,10.5564,38
-0.1457,-1.9849,-0.1596,2.7957,-0.1018,4.9808,10.2415,1.9083,2.8737,3.7912,2.6107,-1.199,9.63,39
-0.1281,-1.9849,-0.1596,2.7957,-0.1018,4.9808,10.2415,1.9083,2.8737,3.7912,2.6107,-1.199,9.63,40
-0.1132,-2.5542,-0.8593,2.0182,0.3084,4.3725,9.5818,2.2778,4.0034,3.3608,2.8852,-1.0922,8.5939,41
-0.0944,-2.5542,-0.8593,2.0182,0.3084,4.3725,9.5818,2.2778,4.0034,3.3608,2.8852,-1.0922,8.5939,42
-0.0812,-2.9691,-1.5036,1.4466,0.7969,3.8085,8.877,2.4112,4.8527,2.8385,2.8988,-0.8776,7.6772,43
-0.0702,-3.1111,-1.8549,1.1132,1.2241,3.3764,8.2301,2.2119,5.3251,2.3614,2.8088,-0.6613,7.0674,44
-0.06,-3.1111,-1.8549,1.1132,1.2241,3.3764,8.2301,2.2119,5.3251,2.3614,2.8088,-0.6613,7.0674,45
-0.0509,-3.1111,-1.8549,1.1132,1.2241,3.3764,8.2301,2.2119,5.3251,2.3614,2.8088,-0.6613,7.0674,46
-0.04,-2.8817,-1.9797,0.9119,1.4808,3.1186,7.7467,1.6761,5.4713,1.9407,2.67,-0.492,6.8387,47
-0.0309,-2.8817,-1.9797,0.9119,1.4808,3.1186,7.7467,1.6761,5.4713,1.9407,2.67,-0.492,6.8387,48
-0.0219,-2.1958,-1.8495,0.7783,1.5785,3.059,7.5097,0.953,5.3161,1.5464,2.4919,-0.3713,6.9697,49
-0.0109,-1.2022,-1.5319,0.6901,1.5922,3.1839,7.5466,0.2514,4.683,1.165,2.3177,-0.3035,7.3823,50
0.0001,-1.2022,-1.5319,0.6901,1.5922,3.1839,7.5466,0.2514,4.683,1.165,2.3177,-0.3035,7.3823,51
0.0114,-1.2022,-1.5319,0.6901,1.5922,3.1839,7.5466,0.2514,4.683,1.165,2.3177,-0.3035,7.3823,52
0.0216,-0.1855,-0.9955,0.644,1.6285,3.4327,7.8148,-0.3289,3.6058,0.8239,2.2294,-0.2738,7.9669,53
0.0313,-0.1855,-0.9955,0.644,1.6285,3.4327,7.8148,-0.3289,3.6058,0.8239,2.2294,-0.2738,7.9669,54
0.0393,0.6325,-0.1767,0.6112,1.7183,3.7605,8.2374,-0.7364,2.4433,0.545,2.2877,-0.256,8.6152,55
0.048,0.6325,-0.1767,0.6112,1.7183,3.7605,8.2374,-0.7364,2.4433,0.545,2.2877,-0.256,8.6152,56
0.0553,1.1455,0.6118,0.5063,1.8031,4.12,8.779,-1.0064,1.4507,0.3043,2.4915,-0.2646,9.2808,57
0.0626,1.1455,0.6118,0.5063,1.8031,4.12,8.779,-1.0064,1.4507,0.3043,2.4915,-0.2646,9.2808,58
0.0701,1.3634,0.9228,0.2299,1.8684,4.473,9.4397,-1.2827,0.6441,0.0531,2.727,-0.3576,10.0042,59
0.08,1.3634,0.9228,0.2299,1.8684,4.473,9.4397,-1.2827,0.6441,0.0531,2.727,-0.3576,10.0042,60
0.0882,1.378,0.635,-0.2491,1.9226,4.802,10.1704,-1.6215,-0.055,-0.2303,2.859,-0.5733,10.759,61
0.0971,1.378,0.635,-0.2491,1.9226,4.802,10.1704,-1.6215,-0.055,-0.2303,2.859,-0.5733,10.759,62
0.1065,1.2991,-0.1117,-0.8787,1.9876,5.0588,10.8785,-1.9194,-0.6411,-0.5135,2.8806,-0.8669,11.4297,63
0.1143,1.2991,-0.1117,-0.8787,1.9876,5.0588,10.8785,-1.9194,-0.6411,-0.5135,2.8806,-0.8669,11.4297,63
0.121,1.1848,-1.0677,-1.5206,2.133,5.2151,11.4836,-2.0242,-1.0692,-0.7448,2.832,-1.1555,11.9389,64
0.1245,1.1848,-1.0677,-1.5206,2.133,5.2151,11.4836,-2.0242,-1.0692,-0.7448,2.832,-1.1555,11.9389,65
0.1265,1.0765,-1.7251,-1.9295,2.2994,5.3442,11.9464,-1.9032,-1.3501,-0.933,2.7227,-1.3716,12.2808,66
0.1272,1.0765,-1.7251,-1.9295,2.2994,5.3442,11.9464,-1.9032,-1.3501,-0.933,2.7227,-1.3716,12.2808,67
0.1267,1.0765,-1.7251,-1.9295,2.2994,5.3442,11.9464,-1.9032,-1.3501,-0.933,2.7227,-1.3716,12.2808,68
0.1234,0.9525,-1.8186,-2.0021,2.2133,5.5403,12.3686,-1.7293,-1.5732,-1.1582,2.5861,-1.5741,12.558,69
0.1143,0.9525,-1.8186,-2.0021,2.2133,5.5403,12.3686,-1.7293,-1.5732,-1.1582,2.5861,-1.5741,12.558,70
0.0974,0.7283,-1.6573,-2.011,1.7605,5.699,12.8887,-1.6175,-1.8044,-1.48,2.5081,-1.9623,12.8388,71
0.0746,0.7283,-1.6573,-2.011,1.7605,5.699,12.8887,-1.6175,-1.8044,-1.48,2.5081,-1.9623,12.8388,72
0.0445,0.3595,-1.6057,-2.2936,1.2165,5.593,13.3662,-1.3819,-1.8999,-1.8949,2.5527,-2.5245,12.8889,73
0.0167,0.3595,-1.6057,-2.2936,1.2165,5.593,13.3662,-1.3819,-1.8999,-1.8949,2.5527,-2.5245,12.8889,74
-0.0125,-0.2182,-1.911,-2.8306,0.9002,5.1755,13.4972,-0.963,-1.5438,-2.3646,2.7043,-2.9498,12.4525,75
-0.0396,-0.2182,-1.911,-2.8306,0.9002,5.1755,13.4972,-0.963,-1.5438,-2.3646,2.7043,-2.9498,12.4525,76
-0.0661,-0.9493,-2.5449,-3.3422,0.8923,4.6157,13.2193,-0.7499,-0.7947,-2.8588,2.8229,-3.1202,11.7417,77
-0.0927,-0.9493,-2.5449,-3.3422,0.8923,4.6157,13.2193,-0.7499,-0.7947,-2.8588,2.8229,-3.1202,11.7417,78
-0.1188,-0.9493,-2.5449,-3.3422,0.8923,4.6157,13.2193,-0.7499,-0.7947,-2.8588,2.8229,-3.1202,11.7417,79
-0.1487,-1.6225,-2.7912,-3.6203,1.0451,4.1246,12.7173,-0.9501,-0.4479,-3.3312,2.6676,-3.2383,11.201,80
-0.1792,-1.6225,-2.7912,-3.6203,1.0451,4.1246,12.7173,-0.9501,-0.4479,-3.3312,2.6676,-3.2383,11.201,81
-0.2109,-2.0641,-1.9341,-3.6328,1.0288,3.7642,12.1599,-1.2705,-0.9756,-3.7306,2.1871,-3.3627,11.0155,82
-0.2517,-2.0641,-1.9341,-3.6328,1.0288,3.7642,12.1599,-1.2705,-0.9756,-3.7306,2.1871,-3.3627,11.0155,83
-0.2801,-1.971,-0.1833,-3.5657,0.6143,3.5083,11.6502,-1.3944,-1.6679,-4.0311,1.6926,-3.3731,11.0385,84
-0.3062,-1.971,-0.1833,-3.5657,0.6143,3.5083,11.6502,-1.3944,-1.6679,-4.0311,1.6926,-3.3731,11.0385,85
-0.3309,-1.2534,1.5828,-3.7299,0.0668,3.388,11.224,-1.1386,-1.6439,-4.1511,1.4577,-3.2347,11.0299,86
-0.352,-1.2534,1.5828,-3.7299,0.0668,3.388,11.224,-1.1386,-1.6439,-4.1511,1.4577,-3.2347,11.0299,87
-0.3726,-0.4434,2.4772,-4.1596,-0.0767,3.3943,10.8046,-0.4398,-0.8808,-4.0158,1.4134,-2.9709,10.8295,88
-0.3905,-0.4434,2.4772,-4.1596,-0.0767,3.3943,10.8046,-0.4398,-0.8808,-4.0158,1.4134,-2.9709,10.8295,88
-0.4075,0.0545,2.7358,-4.4795,0.382,3.415,10.293,0.4882,0.0583,-3.754,1.432,-2.5958,10.3683,89
-0.4235,0.0545,2.7358,-4.4795,0.382,3.415,10.293,0.4882,0.0583,-3.754,1.432,-2.5958,10.3683,90
-0.4394,0.3751,3.2117,-4.389,1.1578,3.3452,9.6769,1.2408,0.7554,-3.4432,1.5449,-2.1513,9.6918,91
-0.4541,0.6555,3.8909,-3.9348,1.8305,3.1715,9.0128,1.5922,1.1666,-2.9442,1.803,-1.7199,8.9338,92
-0.4713,0.6555,3.8909,-3.9348,1.8305,3.1715,9.0128,1.5922,1.1666,-2.9442,1.803,-1.7199,8.9338,93
-0.4834,0.8473,4.4042,-3.2944,2.1574,2.9553,8.3602,1.6184,1.3961,-2.3281,2.1213,-1.3682,8.2405,94
-0.4966,0.8473,4.4042,-3.2944,2.1574,2.9553,8.3602,1.6184,1.3961,-2.3281,2.1213,-1.3682,8.2405,95
-0.5073,0.8473,4.4042,-3.2944,2.1574,2.9553,8.3602,1.6184,1.3961,-2.3281,2.1213,-1.3682,8.2405,96
-0.5164,0.9811,4.6226,-2.665,2.1304,2.7654,7.8274,1.4564,1.4476,-1.7831,2.3494,-1.1284,7.7042,97
-0.5237,1.1707,4.3529,-2.1872,1.8864,2.644,7.5746,1.1966,1.218,-1.3382,2.4181,-1.0251,7.3704,98
-0.5273,1.1707,4.3529,-2.1872,1.8864,2.644,7.5746,1.1966,1.218,-1.3382,2.4181,-1.0251,7.3704,99
-0.5282,1.4522,3.4045,-1.8372,1.558,2.6177,7.6863,0.862,0.6702,-0.9605,2.3613,-1.0588,7.2641,0
-0.5277,1.4522,3.4045,-1.8372,1.558,2.6177,7.6863,0.862,0.6702,-0.9605,2.3613,-1.0588,7.2641,1
-0.527,1.7158,2.0169,-1.5014,1.2501,2.7038,8.0996,0.4498,-0.0434,-0.6048,2.2973,-1.2032,7.3643,2
-0.5223,1.7158,2.0169,-1.5014,1.2501,2.7038,8.0996,0.4498,-0.0434,-0.6048,2.2973,-1.2032,7.3643,3
-0.5137,1.7885,0.6384,-1.135,1.0387,2.875,8.6541,0.0091,-0.6489,-0.263,2.3473,-1.4403,7.6358,4
-0.5024,1.7885,0.6384,-1.135,1.0387,2.875,8.6541,0.0091,-0.6489,-0.263,2.3473,-1.4403,7.6358,5
-0.4867,1.6666,-0.4863,-0.7471,0.9277,3.0351,9.2352,-0.4119,-0.9789,0.0178,2.5153,-1.7488,8.0561,6
-0.4656,1.6666,-0.4863,-0.7471,0.9277,3.0351,9.2352,-0.4119,-0.9789,0.0178,2.5153,-1.7488,8.0561,7
-0.4419,1.6666,-0.4863,-0.7471,0.9277,3.0351,9.2352,-0.4119,-0.9789,0.0178,2.5153,-1.7488,8.0561,8
-0.4161,1.5106,-1.3969,-0.3675,0.8901,3.1241,9.8363,-0.7642,-1.0022,0.1839,2.7144,-2.1085,8.6127,9
-0.3888,1.5106,-1.3969,-0.3675,0.8901,3.1241,9.8363,-0.7642,-1.0022,0.1839,2.7144,-2.1085,8.6127,10
-0.3692,1.3301,-2.3184,-0.0361,0.8752,3.1967,10.4812,-0.9772,-0.8395,0.2387,2.8453,-2.4985,9.2925,11
-0.3611,1.3301,-2.3184,-0.0361,0.8752,3.1967,10.4812,-0.9772,-0.8395,0.2387,2.8453,-2.4985,9.2925,12
-0.3619,1.0049,-3.244,0.256,0.8436,3.3344,11.1608,-1.0154,-0.82,0.2374,2.9093,-2.8659,10.0263,13
-0.3659,1.0049,-3.244,0.256,0.8436,3.3344,11.1608,-1.0154,-0.82,0.2374,2.9093,-2.8659,10.0263,14
-0.3698,1.0049,-3.244,0.256,0.8436,3.3344,11.1608,-1.0154,-0.82,0.2374,2.9093,-2.8659,10.0263,15
-0.3734,0.6032,-3.8505,0.5206,0.8463,3.5346,11.7983,-0.912,-1.126,0.2005,3.0272,-3.1642,10.6935,16
-0.3771,0.6032,-3.8505,0.5206,0.8463,3.5346,11.7983,-0.912,-1.126,0.2005,3.0272,-3.1642,10.6935,17
-0.3807,0.2772,-4.0082,0.7657,0.9318,3.7357,12.3111,-0.7811,-1.6063,0.0908,3.1476,-3.3634,11.2658,17
-0.3831,0.2772,-4.0082,0.7657,0.9318,3.7357,12.3111,-0.7811,-1.6063,0.0908,3.1476,-3.3634,11.2658,18
-0.3819,0.1184,-3.8762,1.0551,1.0609,3.9499,12.7659,-0.757,-2.1104,-0.182,3.1023,-3.4732,11.9273,19
-0.3779,0.1184,-3.8762,1.0551,1.0609,3.9499,12.7659,-0.757,-2.1104,-0.182,3.1023,-3.4732,11.9273,20
-0.3737,0.162,-3.5295,1.486,1.2036,4.3178,13.2609,-0.7723,-2.5124,-0.5027,2.8994,-3.508,12.8155,21
-0.3709,0.162,-3.5295,1.486,1.2036,4.3178,13.2609,-0.7723,-2.5124,-0.5027,2.8994,-3.508,12.8155,22
-0.3699,0.2471,-2.6954,2.1619,1.3611,4.9388,13.6079,-0.552,-2.6202,-0.5325,2.6071,-3.311,13.6435,23
-0.3718,0.2614,-0.7684,3.1555,1.5159,5.6654,13.5433,-0.0554,-2.4765,-0.2371,2.2731,-2.7311,13.9973,24
-0.3731,0.2614,-0.7684,3.1555,1.5159,5.6654,13.5433,-0.0554,-2.4765,-0.2371,2.2731,-2.7311,13.9973,25
-0.3713,0.2614,-0.7684,3.1555,1.5159,5.6654,13.5433,-0.0554,-2.4765,-0.2371,2.2731,-2.7311,13.9973,26
-0.3647,0.3421,1.9638,4.2981,1.5662,6.2943,13.175,0.4243,-2.2379,0.2278,2.001,-2,13.8273,27
-0.3528,0.3421,1.9638,4.2981,1.5662,6.2943,13.175,0.4243,-2.2379,0.2278,2.001,-2,13.8273,28
-0.3361,0.3155,3.393,5.062,1.3128,6.7568,12.7476,0.7711,-1.8551,0.7947,1.7896,-1.4808,13.3048,29
-0.314,0.3155,3.393,5.062,1.3128,6.7568,12.7476,0.7711,-1.8551,0.7947,1.7896,-1.4808,13.3048,30
-0.2944,-0.1378,2.4266,5.1967,0.7342,6.9339,12.3111,1.0355,-1.392,1.4598,1.4879,-1.1982,12.594,31
-0.2779,-0.1378,2.4266,5.1967,0.7342,6.9339,12.3111,1.0355,-1.392,1.4598,1.4879,-1.1982,12.594,32
-0.2629,-0.8336,0.8103,5.0487,0.117,6.7475,11.8547,1.1641,-1.0546,2.3063,1.1464,-1.0143,11.8711,33
-0.2442,-1.436,0.2012,4.8765,-0.2325,6.327,11.3999,1.2334,-0.7444,3.2913,1.0749,-0.9473,11.2602,34
-0.2298,-1.436,0.2012,4.8765,-0.2325,6.327,11.3999,1.2334,-0.7444,3.2913,1.0749,-0.9473,11.2602,35
-0.216,-1.8538,0.4729,4.6471,-0.2423,5.8186,10.961,1.4392,-0.166,4.1314,1.458,-1.0496,10.7272,36
-0.2023,-1.8538,0.4729,4.6471,-0.2423,5.8186,10.961,1.4392,-0.166,4.1314,1.458,-1.0496,10.7272,37
-0.1858,-2.148,0.8006,4.2592,-0.0692,5.2718,10.5132,1.8338,0.7532,4.5152,2.1273,-1.2031,10.1089,38
-0.1697,-2.148,0.8006,4.2592,-0.0692,5.2718,10.5132,1.8338,0.7532,4.5152,2.1273,-1.2031,10.1089,39
-0.1521,-2.4144,0.6248,3.6351,0.1452,4.694,9.9851,2.2683,1.8792,4.3372,2.7436,-1.2392,9.3101,40
-0.1322,-2.4144,0.6248,3.6351,0.1452,4.694,9.9851,2.2683,1.8792,4.3372,2.7436,-1.2392,9.3101,41
-0.1168,-2.4144,0.6248,3.6351,0.1452,4.694,9.9851,2.2683,1.8792,4.3372,2.7436,-1.2392,9.3101,42
-0.102,-2.6472,-0.0359,2.8743,0.4495,4.1025,9.3218,2.5109,3.0524,3.7741,3.0885,-1.1275,8.4285,43
-0.0887,-2.6372,-0.793,2.1878,0.8845,3.5574,8.5909,2.3936,4.012,3.1549,3.1699,-0.9296,7.6841,44
-0.0744,-2.6372,-0.793,2.1878,0.8845,3.5574,8.5909,2.3936,4.012,3.1549,3.1699,-0.9296,7.6841,45
-0.065,-2.1778,-1.3574,1.678,1.3328,3.1582,7.9643,1.8942,4.4721,2.6956,3.0982,-0.7175,7.2765,46
-0.0548,-2.1778,-1.3574,1.678,1.3328,3.1582,7.9643,1.8942,4.4721,2.6956,3.0982,-0.7175,7.2765,47
-0.0456,-1.2878,-1.4763,1.3396,1.6892,3.006,7.5987,1.1587,4.4092,2.5247,2.9218,-0.5551,7.2522,48
-0.0341,-1.2878,-1.4763,1.3396,1.6892,3.006,7.5987,1.1587,4.4092,2.5247,2.9218,-0.5551,7.2522,49
-0.0224,-1.2878,-1.4763,1.3396,1.6892,3.006,7.5987,1.1587,4.4092,2.5247,2.9218,-0.5551,7.2522,50
-0.008,-0.2278,-1.014,1.155,1.917,3.1204,7.5425,0.4139,3.959,2.5734,2.6789,-0.4786,7.5335,50
0.0059,0.6471,-0.2096,1.0852,2.0002,3.3919,7.7346,-0.1379,3.2057,2.4958,2.4749,-0.4803,7.9755,51
0.0195,0.6471,-0.2096,1.0852,2.0002,3.3919,7.7346,-0.1379,3.2057,2.4958,2.4749,-0.4803,7.9755,52
0.0347,1.1716,0.6195,1.0498,1.9624,3.6806,8.0772,-0.4127,2.3338,2.18,2.4278,-0.5107,8.4136,53
0.0488,1.1716,0.6195,1.0498,1.9624,3.6806,8.0772,-0.4127,2.3338,2.18,2.4278,-0.5107,8.4136,54
0.0612,1.1716,0.6195,1.0498,1.9624,3.6806,8.0772,-0.4127,2.3338,2.18,2.4278,-0.5107,8.4136,55
0.0705,1.4252,1.2227,0.9376,1.8461,3.9389,8.4635,-0.4825,1.6853,1.7326,2.5629,-0.5047,8.7615,56
0.0781,1.4252,1.2227,0.9376,1.8461,3.9389,8.4635,-0.4825,1.6853,1.7326,2.5629,-0.5047,8.7615,57
0.0843,1.5234,1.4164,0.666,1.733,4.2124,8.8566,-0.5431,1.4183,1.2059,2.7877,-0.4368,9.0828,58
0.0889,1.5234,1.4164,0.666,1.733,4.2124,8.8566,-0.5431,1.4183,1.2059,2.7877,-0.4368,9.0828,59
0.0936,1.516,1.1901,0.2283,1.7243,4.5397,9.3447,-0.7906,1.3154,0.6887,2.9526,-0.3772,9.5273,60
0.0993,1.516,1.1901,0.2283,1.7243,4.5397,9.3447,-0.7906,1.3154,0.6887,2.9526,-0.3772,9.5273,61
0.1059,1.4407,0.7315,-0.3076,1.8163,4.8871,9.9822,-1.2307,1.0738,0.2639,2.9784,-0.4518,10.1429,62
0.1133,1.4407,0.7315,-0.3076,1.8163,4.8871,9.9822,-1.2307,1.0738,0.2639,2.9784,-0.4518,10.1429,63
0.1197,1.2912,0.1426,-0.8481,1.9158,5.1852,10.6906,-1.6784,0.598,-0.0657,2.9094,-0.6871,10.8373,64
0.1239,1.2912,0.1426,-0.8481,1.9158,5.1852,10.6906,-1.6784,0.598,-0.0657,2.9094,-0.6871,10.8373,65
0.1273,1.0269,-0.5373,-1.3014,1.9811,5.4044,11.3259,-2.0579,0.0438,-0.349,2.8141,-0.9642,11.4607,66
0.1297,1.0269,-0.5373,-1.3014,1.9811,5.4044,11.3259,-2.0579,0.0438,-0.349,2.8141,-0.9642,11.4607,67
0.1306,0.632,-1.1043,-1.5545,1.9788,5.5745,11.817,-2.3372,-0.3531,-0.6788,2.7151,-1.1878,11.9624,68
0.1297,0.1708,-1.4429,-1.628,1.7724,5.7297,12.3038,-2.4241,-0.6217,-1.1109,2.5957,-1.4741,12.4739,69
0.123,0.1708,-1.4429,-1.628,1.7724,5.7297,12.3038,-2.4241,-0.6217,-1.1109,2.5957,-1.4741,12.4739,70
0.1021,-0.2262,-1.6633,-1.7753,1.3324,5.795,12.9406,-2.3644,-0.9621,-1.5926,2.4589,-2.04,13.0417,71
0.0772,-0.2262,-1.6633,-1.7753,1.3324,5.795,12.9406,-2.3644,-0.9621,-1.5926,2.4589,-2.04,13.0417,72
0.0473,-0.5577,-1.8897,-2.1878,0.8878,5.6317,13.573,-2.044,-1.2383,-2.0793,2.3461,-2.813,13.3494,73
0.0163,-0.5577,-1.8897,-2.1878,0.8878,5.6317,13.573,-2.044,-1.2383,-2.0793,2.3461,-2.813,13.3494,74
-0.0133,-0.9549,-2.158,-2.736,0.6464,5.214,13.8435,-1.413,-1.1879,-2.5931,2.3051,-3.4064,13.0386,75
-0.0397,-0.9549,-2.158,-2.736,0.6464,5.214,13.8435,-1.413,-1.1879,-2.5931,2.3051,-3.4064,13.0386,76
-0.0638,-1.4749,-2.4468,-3.1593,0.6003,4.654,13.5843,-0.9616,-0.9627,-3.116,2.2915,-3.613,12.2622,77
-0.0888,-1.4749,-2.4468,-3.1593,0.6003,4.654,13.5843,-0.9616,-0.9627,-3.116,2.2915,-3.613,12.2622,78
-0.1148,-2.03,-2.4087,-3.3664,0.6478,4.1392,12.9588,-1.0346,-1.0165,-3.569,2.1359,-3.6149,11.5034,79
-0.142,-2.03,-2.4087,-3.3664,0.6478,4.1392,12.9588,-1.0346,-1.0165,-3.569,2.1359,-3.6149,11.5034,80
-0.178,-2.5522,-1.7115,-3.401,0.6012,3.7789,12.221,-1.4661,-1.7472,-3.9621,1.723,-3.5932,11.0556,81
-0.2059,-2.5522,-1.7115,-3.401,0.6012,3.7789,12.221,-1.4661,-1.7472,-3.9621,1.723,-3.5932,11.0556,82
-0.2352,-2.7974,-0.456,-3.3675,0.2421,3.5417,11.5443,-1.8668,-2.8429,-4.3191,1.2142,-3.5258,10.9273,83
-0.2614,-2.7974,-0.456,-3.3675,0.2421,3.5417,11.5443,-1.8668,-2.8429,-4.3191,1.2142,-3.5258,10.9273,83
-0.2893,-2.2916,1.0583,-3.4652,-0.3068,3.3977,11.0426,-1.7297,-3.3862,-4.5263,0.912,-3.398,10.9864,84
-0.3252,-1.1971,2.0752,-3.8364,-0.6078,3.3733,10.7413,-0.9332,-3.0576,-4.4555,0.8969,-3.2154,11.03,85
-0.3493,-1.1971,2.0752,-3.8364,-0.6078,3.3733,10.7413,-0.9332,-3.0576,-4.4555,0.8969,-3.2154,11.03,86
-0.37,-0.2215,2.1406,-4.3357,-0.3686,3.4164,10.5304,0.2032,-2.1775,-4.0966,1.0823,-2.9429,10.8598,87
-0.39,-0.2215,2.1406,-4.3357,-0.3686,3.4164,10.5304,0.2032,-2.1775,-4.0966,1.0823,-2.9429,10.8598,88
-0.4071,0.4218,2.0367,-4.596,0.3226,3.3884,10.2142,1.3005,-1.1446,-3.5255,1.4079,-2.553,10.3901,89
-0.4236,0.4218,2.0367,-4.596,0.3226,3.3884,10.2142,1.3005,-1.1446,-3.5255,1.4079,-2.553,10.3901,90
-0.4378,0.9274,2.3976,-4.411,1.1597,3.2395,9.7023,1.9836,-0.2526,-2.8804,1.831,-2.0918,9.6515,91
-0.4529,0.9274,2.3976,-4.411,1.1597,3.2395,9.7023,1.9836,-0.2526,-2.8804,1.831,-2.0918,9.6515,92
-0.4674,1.3179,2.8303,-3.8758,1.8406,3.0267,9.0755,2.106,0.4595,-2.3463,2.265,-1.6795,8.8024,93
-0.481,1.3179,2.8303,-3.8758,1.8406,3.0267,9.0755,2.106,0.4595,-2.3463,2.265,-1.6795,8.8024,94
-0.4941,1.5731,3.0595,-3.2008,2.1631,2.8456,8.4654,1.8001,1.0319,-2.012,2.5758,-1.3484,8.0284,95
-0.504,1.5731,3.0595,-3.2008,2.1631,2.8456,8.4654,1.8001,1.0319,-2.012,2.5758,-1.3484,8.0284,96
-0.5129,1.736,3.0863,-2.6097,2.1234,2.7696,7.9991,1.2656,1.3793,-1.8199,2.6982,-1.0862,7.4439,97
-0.5202,1.736,3.0863,-2.6097,2.1234,2.7696,7.9991,1.2656,1.3793,-1.8199,2.6982,-1.0862,7.4439,98
-0.5249,1.785,2.6685,-2.2198,1.9093,2.7726,7.7805,0.6419,1.2944,-1.6514,2.6439,-0.9763,7.1529,99
-0.5259,1.785,2.6685,-2.2198,1.9093,2.7726,7.7805,0.6419,1.2944,-1.6514,2.6439,-0.9763,7.1529,0
-0.5249,1.7077,1.7911,-1.9477,1.7208,2.787,7.8643,0.0899,0.7085,-1.3887,2.4599,-1.0617,7.1777,1
-0.5242,1.7077,1.7911,-1.9477,1.7208,2.787,7.8643,0.0899,0.7085,-1.3887,2.4599,-1.0617,7.1777,2
-0.5205,1.5673,0.7775,-1.6328,1.6376,2.8027,8.2089,-0.2469,-0.1264,-0.9707,2.2806,-1.2655,7.4125,3
-0.5137,1.5673,0.7775,-1.6328,1.6376,2.8027,8.2089,-0.2469,-0.1264,-0.9707,2.2806,-1.2655,7.4125,4
-0.5034,1.4429,-0.0622,-1.1875,1.6531,2.8625,8.6956,-0.4,-0.8487,-0.4349,2.2782,-1.5111,7.7642,5
-0.4888,1.4429,-0.0622,-1.1875,1.6531,2.8625,8.6956,-0.4,-0.8487,-0.4349,2.2782,-1.5111,7.7642,6
-0.4714,1.3606,-0.6168,-0.6628,1.6997,2.9783,9.245,-0.4616,-1.2214,0.0919,2.4885,-1.7728,8.2166,7
-0.4512,1.3606,-0.6168,-0.6628,1.6997,2.9783,9.245,-0.4616,-1.2214,0.0919,2.4885,-1.7728,8.2166,8
-0.4302,1.3525,-1.0633,-0.1651,1.7202,3.101,9.8536,-0.51,-1.2653,0.5254,2.7701,-2.0773,8.7966,9
-0.4084,1.3525,-1.0633,-0.1651,1.7202,3.101,9.8536,-0.51,-1.2653,0.5254,2.7701,-2.0773,8.7966,10
-0.3886,1.3525,-1.0633,-0.1651,1.7202,3.101,9.8536,-0.51,-1.2653,0.5254,2.7701,-2.0773,8.7966,11
-0.3762,1.4137,-1.6227,0.281,1.6989,3.2158,10.5079,-0.5843,-1.2379,0.8708,3.0223,-2.4596,9.5128,12
-0.3727,1.4566,-2.2266,0.71,1.6035,3.3718,11.1642,-0.6697,-1.3995,1.1037,3.292,-2.8666,10.2914,13
-0.374,1.4566,-2.2266,0.71,1.6035,3.3718,11.1642,-0.6697,-1.3995,1.1037,3.292,-2.8666,10.2914,13
-0.3769,1.447,-2.5948,1.097,1.4508,3.6022,11.7871,-0.7228,-1.7511,1.1202,3.6476,-3.1974,10.9873,14
-0.3808,1.447,-2.5948,1.097,1.4508,3.6022,11.7871,-0.7228,-1.7511,1.1202,3.6476,-3.1974,10.9873,15
-0.384,1.3714,-2.6505,1.3613,1.318,3.8698,12.3171,-0.6777,-2.0687,0.856,3.9823,-3.401,11.4887,16
-0.3856,1.3714,-2.6505,1.3613,1.318,3.8698,12.3171,-0.6777,-2.0687,0.856,3.9823,-3.401,11.4887,17
-0.3859,1.221,-2.5456,1.5076,1.2554,4.1105,12.7306,-0.5501,-2.2614,0.4499,4.0663,-3.4899,11.9065,18
-0.3853,1.221,-2.5456,1.5076,1.2554,4.1105,12.7306,-0.5501,-2.2614,0.4499,4.0663,-3.4899,11.9065,19
-0.3843,1.1029,-2.3709,1.64,1.3074,4.3627,13.0877,-0.3864,-2.4112,0.1838,3.8788,-3.4872,12.438,20
-0.3796,1.1029,-2.3709,1.64,1.3074,4.3627,13.0877,-0.3864,-2.4112,0.1838,3.8788,-3.4872,12.438,21
-0.3749,1.1029,-2.3709,1.64,1.3074,4.3627,13.0877,-0.3864,-2.4112,0.1838,3.8788,-3.4872,12.438,22
-0.3716,1.0764,-1.9879,1.9055,1.4814,4.7791,13.3556,-0.0938,-2.4731,0.2199,3.5663,-3.3205,13.001,23
-0.3701,1.0764,-1.9879,1.9055,1.4814,4.7791,13.3556,-0.0938,-2.4731,0.2199,3.5663,-3.3205,13.001,24
-0.3719,0.9996,-0.9287,2.4467,1.712,5.3642,13.3239,0.4279,-2.2683,0.4925,3.2072,-2.8549,13.2677,25
-0.3737,0.9996,-0.9287,2.4467,1.712,5.3642,13.3239,0.4279,-2.2683,0.4925,3.2072,-2.8549,13.2677,26
-0.373,0.8136,1.0039,3.2343,1.9135,5.9322,12.9134,0.9688,-1.7682,0.8947,2.8744,-2.1396,13.0847,27
-0.3645,0.8136,1.0039,3.2343,1.9135,5.9322,12.9134,0.9688,-1.7682,0.8947,2.8744,-2.1396,13.0847,28
-0.3534,0.6533,2.9388,3.9955,1.9479,6.3693,12.359,1.2836,-1.1776,1.4767,2.602,-1.4667,12.5744,29
-0.3386,0.6533,2.9388,3.9955,1.9479,6.3693,12.359,1.2836,-1.1776,1.4767,2.602,-1.4667,12.5744,30
-0.3187,0.3599,3.3227,4.455,1.6291,6.6015,11.875,1.4464,-0.6601,2.1937,2.2241,-1.0471,11.8934,31
-0.3003,0.3599,3.3227,4.455,1.6291,6.6015,11.875,1.4464,-0.6601,2.1937,2.2241,-1.0471,11.8934,32
-0.2847,-0.3238,2.0143,4.6444,0.9864,6.5603,11.4765,1.4835,-0.1636,2.859,1.7074,-0.8396,11.2319,33
-0.2696,-0.3238,2.0143,4.6444,0.9864,6.5603,11.4765,1.4835,-0.1636,2.859,1.7074,-0.8396,11.2319,34
-0.2499,-1.1205,0.9278,4.756,0.3481,6.3142,11.1366,1.3161,0.372,3.518,1.3453,-0.7646,10.7438,35
-0.2367,-1.1205,0.9278,4.756,0.3481,6.3142,11.1366,1.3161,0.372,3.518,1.3453,-0.7646,10.7438,36
-0.2181,-1.699,1.1035,4.7556,-0.0749,5.9641,10.8252,1.0939,0.9369,4.1831,1.3838,-0.8368,10.4081,37
-0.2022,-1.699,1.1035,4.7556,-0.0749,5.9641,10.8252,1.0939,0.9369,4.1831,1.3838,-0.8368,10.4081,38
-0.1851,-2.1194,1.622,4.4504,-0.3206,5.5443,10.4989,1.0801,1.5663,4.595,1.7956,-1.0283,10.0782,38
-0.1674,-2.1194,1.622,4.4504,-0.3206,5.5443,10.4989,1.0801,1.5663,4.595,1.7956,-1.0283,10.0782,39
-0.1498,-2.5207,1.5139,3.7801,-0.3784,5.067,10.1215,1.3712,2.3121,4.5574,2.3411,-1.1938,9.6123,40
-0.1329,-2.5207,1.5139,3.7801,-0.3784,5.067,10.1215,1.3712,2.3121,4.5574,2.3411,-1.1938,9.6123,41
-0.1161,-2.9325,0.6254,2.8859,-0.1647,4.5469,9.6541,1.8013,3.2234,4.1473,2.7897,-1.2356,8.9846,42
-0.1014,-2.9325,0.6254,2.8859,-0.1647,4.5469,9.6541,1.8013,3.2234,4.1473,2.7897,-1.2356,8.9846,43
-0.0869,-3.2406,-0.5536,2.0341,0.295,4.0226,9.0982,2.0878,4.2481,3.5951,3.032,-1.1698,8.3099,44
-0.0745,-3.2406,-0.5536,2.0341,0.295,4.0226,9.0982,2.0878,4.2481,3.5951,3.032,-1.1698,8.3099,45
-0.0635,-3.1731,-1.2769,1.4471,0.8487,3.5617,8.53,2.0714,5.0961,3.0906,3.0877,-1.0517,7.778,46
-0.0535,-3.1731,-1.2769,1.4471,0.8487,3.5617,8.53,2.0714,5.0961,3.0906,3.0877,-1.0517,7.778,47
-0.0441,-2.5181,-1.2184,1.1463,1.2914,3.2416,8.0569,1.7979,5.4875,2.7037,3.0633,-0.9379,7.5199,48
-0.0343,-2.5181,-1.2184,1.1463,1.2914,3.2416,8.0569,1.7979,5.4875,2.7037,3.0633,-0.9379,7.5199,49
-0.024,-1.354,-0.6475,0.9691,1.5104,3.098,7.76,1.3978,5.407,2.3648,3.0117,-0.8462,7.549,50
-0.0127,-1.354,-0.6475,0.9691,1.5104,3.098,7.76,1.3978,5.407,2.3648,3.0117,-0.8462,7.549,51
0.0005,0.0315,0.0231,0.7528,1.5833,3.143,7.687,0.9356,4.9661,1.9826,2.9583,-0.7494,7.8224,52
0.0131,0.0315,0.0231,0.7528,1.5833,3.143,7.687,0.9356,4.9661,1.9826,2.9583,-0.7494,7.8224,53
0.0267,1.2495,0.47,0.4577,1.676,3.3936,7.8839,0.4426,4.3063,1.5266,2.9447,-0.6369,8.2661,54
0.0397,1.2495,0.47,0.4577,1.676,3.3936,7.8839,0.4426,4.3063,1.5266,2.9447,-0.6369,8.2661,55
0.0506,1.9281,0.498,0.135,1.8652,3.7934,8.3395,-0.0258,3.5983,0.9757,2.9568,-0.5456,8.7242,56
0.0599,1.9281,0.498,0.135,1.8652,3.7934,8.3395,-0.0258,3.5983,0.9757,2.9568,-0.5456,8.7242,57
0.0701,1.9043,0.0916,-0.1064,2.0532,4.2357,8.9145,-0.4309,3.0723,0.3273,2.9101,-0.4669,9.1002,58
0.0798,1.9043,0.0916,-0.1064,2.0532,4.2357,8.9145,-0.4309,3.0723,0.3273,2.9101,-0.4669,9.1002,59
0.0896,1.9043,0.0916,-0.1064,2.0532,4.2357,8.9145,-0.4309,3.0723,0.3273,2.9101,-0.4669,9.1002,60
0.0996,1.2906,-0.5522,-0.1779,2.0797,4.6814,9.4855,-0.8415,2.6911,-0.3579,2.6892,-0.3501,9.4537,61
0.1062,0.3719,-1.2018,-0.1673,1.8938,5.1289,10.0439,-1.3697,1.999,-0.9511,2.2689,-0.2275,9.8648,62
0.1128,0.3719,-1.2018,-0.1673,1.8938,5.1289,10.0439,-1.3697,1.999,-0.9511,2.2689,-0.2275,9.8648,63
0.117,-0.5134,-1.7309,-0.275,1.6325,5.4943,10.575,-1.9765,0.8904,-1.3237,1.7853,-0.2028,10.3578,63
0.1195,-0.5134,-1.7309,-0.275,1.6325,5.4943,10.575,-1.9765,0.8904,-1.3237,1.7853,-0.2028,10.3578,64
0.1204,-1.059,-1.9821,-0.5631,1.4975,5.7009,11.0223,-2.4493,-0.316,-1.4259,1.4305,-0.3367,10.8608,65
0.1204,-1.059,-1.9821,-0.5631,1.4975,5.7009,11.0223,-2.4493,-0.316,-1.4259,1.4305,-0.3367,10.8608,66
0.12,-1.2255,-1.9354,-0.8937,1.4822,5.7936,11.3762,-2.6559,-1.3943,-1.3172,1.3221,-0.6067,11.3327,67
0.1192,-1.2255,-1.9354,-0.8937,1.4822,5.7936,11.3762,-2.6559,-1.3943,-1.3172,1.3221,-0.6067,11.3327,68
0.1144,-1.1958,-1.8062,-1.1703,1.3926,5.8437,11.79,-2.7947,-2.2204,-1.1468,1.4753,-1.0342,11.9269,69
0.1057,-1.1958,-1.8062,-1.1703,1.3926,5.8437,11.79,-2.7947,-2.2204,-1.1468,1.4753,-1.0342,11.9269,70
0.088,-1.0647,-1.8683,-1.5491,1.2097,5.8093,12.4674,-3.0292,-2.6835,-1.0571,1.8104,-1.7719,12.701,71
0.0619,-0.8448,-2.1049,-2.1605,1.0784,5.5515,13.2997,-3.0221,-2.7034,-1.1542,2.1412,-2.7845,13.3033,72
0.0275,-0.8448,-2.1049,-2.1605,1.0784,5.5515,13.2997,-3.0221,-2.7034,-1.1542,2.1412,-2.7845,13.3033,73
-0.0025,-0.6583,-2.1019,-2.7842,0.9904,5.036,13.8506,-2.4126,-2.2955,-1.522,2.3093,-3.6808,13.3133,74
-0.0326,-0.6583,-2.1019,-2.7842,0.9904,5.036,13.8506,-2.4126,-2.2955,-1.522,2.3093,-3.6808,13.3133,75
-0.057,-0.7142,-1.7265,-3.1062,0.8792,4.417,13.8229,-1.5211,-1.7413,-2.1068,2.2966,-4.1453,12.8103,76
-0.0829,-0.7142,-1.7265,-3.1062,0.8792,4.417,13.8229,-1.5211,-1.7413,-2.1068,2.2966,-4.1453,12.8103,77
-0.1037,-0.7142,-1.7265,-3.1062,0.8792,4.417,13.8229,-1.5211,-1.7413,-2.1068,2.2966,-4.1453,12.8103,78
-0.1291,-0.994,-1.0128,-3.0855,0.7518,3.9351,13.3199,-0.9428,-1.6238,-2.6028,2.1179,-4.1958,12.1906,79
-0.1581,-0.994,-1.0128,-3.0855,0.7518,3.9351,13.3199,-0.9428,-1.6238,-2.6028,2.1179,-4.1958,12.1906,80
-0.1887,-1.3238,0.1526,-2.9227,0.5125,3.7139,12.6066,-0.7965,-2.1755,-2.8742,1.7683,-3.9914,11.6652,81
-0.2165,-1.3238,0.1526,-2.9227,0.5125,3.7139,12.6066,-0.7965,-2.1755,-2.8742,1.7683,-3.9914,11.6652,82
-0.2484,-1.528,1.6025,-2.8832,0.0614,3.645,11.8928,-0.8315,-2.7923,-3.1712,1.3556,-3.6856,11.3074,83
-0.2748,-1.528,1.6025,-2.8832,0.0614,3.645,11.8928,-0.8315,-2.7923,-3.1712,1.3556,-3.6856,11.3074,84
-0.3008,-1.3158,2.9444,-3.1606,-0.4123,3.6016,11.3287,-0.7465,-2.784,-3.5017,1.0922,-3.4002,11.1368,85
-0.3279,-1.3158,2.9444,-3.1606,-0.4123,3.6016,11.3287,-0.7465,-2.784,-3.5017,1.0922,-3.4002,11.1368,86
-0.352,-0.7362,3.4641,-3.7433,-0.557,3.5906,10.961,-0.3537,-2.0564,-3.6079,1.061,-3.1257,10.9905,87
-0.3748,-0.7362,3.4641,-3.7433,-0.557,3.5906,10.961,-0.3537,-2.0564,-3.6079,1.061,-3.1257,10.9905,88
-0.3949,-0.1628,3.1571,-4.3184,-0.1663,3.6034,10.6636,0.2517,-0.995,-3.3999,1.2161,-2.7809,10.6479,88
-0.4128,-0.1628,3.1571,-4.3184,-0.1663,3.6034,10.6636,0.2517,-0.995,-3.3999,1.2161,-2.7809,10.6479,89
-0.4308,0.3007,3.0263,-4.5189,0.6193,3.5598,10.2186,0.8329,-0.1028,-2.9622,1.5269,-2.3696,10.0606,90
-0.446,0.3007,3.0263,-4.5189,0.6193,3.5598,10.2186,0.8329,-0.1028,-2.9622,1.5269,-2.3696,10.0606,91
-0.4614,0.637,3.2043,-4.2883,1.4318,3.3737,9.5637,1.2758,0.4969,-2.4829,1.9373,-1.9786,9.3135,92
-0.4751,0.637,3.2043,-4.2883,1.4318,3.3737,9.5637,1.2758,0.4969,-2.4829,1.9373,-1.9786,9.3135,93
-0.4879,0.7992,3.3176,-3.7576,2.044,3.0439,8.8289,1.5703,0.8835,-2.122,2.3015,-1.6771,8.5158,94
-0.4988,0.7992,3.3176,-3.7576,2.044,3.0439,8.8289,1.5703,0.8835,-2.122,2.3015,-1.6771,8.5158,95
-0.5089,0.9239,3.5101,-3.0963,2.3548,2.7215,8.1582,1.6752,1.0264,-1.8893,2.4895,-1.43,7.7823,96
-0.517,0.9239,3.5101,-3.0963,2.3548,2.7215,8.1582,1.6752,1.0264,-1.8893,2.4895,-1.43,7.7823,97
-0.5243,1.1263,3.6874,-2.5009,2.3365,2.5532,7.672,1.5226,0.8761,-1.692,2.5055,-1.2028,7.2489,98
-0.5275,1.1263,3.6874,-2.5009,2.3365,2.5532,7.672,1.5226,0.8761,-1.692,2.5055,-1.2028,7.2489,99
-0.529,1.3365,3.3374,-2.0578,2.0992,2.5508,7.4688,1.1427,0.3838,-1.4307,2.4225,-1.0681,6.9925,0
-0.5285,1.3365,3.3374,-2.0578,2.0992,2.5508,7.4688,1.1427,0.3838,-1.4307,2.4225,-1.0681,6.9925,1
-0.5278,1.4885,2.4095,-1.6838,1.7965,2.6346,7.59,0.683,-0.3228,-1.0641,2.3233,-1.1015,6.985,2
-0.5251,1.4885,2.4095,-1.6838,1.7965,2.6346,7.59,0.683,-0.3228,-1.0641,2.3233,-1.1015,6.985,3
-0.5188,1.555,1.2766,-1.2946,1.5416,2.7483,7.9864,0.2731,-0.952,-0.6182,2.2898,-1.2784,7.17,4
-0.5092,1.555,1.2766,-1.2946,1.5416,2.7483,7.9864,0.2731,-0.952,-0.6182,2.2898,-1.2784,7.17,5
-0.4972,1.4965,0.2587,-0.9166,1.3899,2.8768,8.5378,-0.0618,-1.2837,-0.1583,2.3921,-1.5084,7.4876,6
-0.4813,1.4965,0.2587,-0.9166,1.3899,2.8768,8.5378,-0.0618,-1.2837,-0.1583,2.3921,-1.5084,7.4876,7
-0.4632,1.3797,-0.5519,-0.5803,1.3534,2.9703,9.1472,-0.3556,-1.249,0.2317,2.6093,-1.767,7.9464,8
-0.4416,1.3797,-0.5519,-0.5803,1.3534,2.9703,9.1472,-0.3556,-1.249,0.2317,2.6093,-1.767,7.9464,8
-0.423,1.3825,-1.4052,-0.2686,1.3964,3.0023,9.8146,-0.5826,-0.9892,0.504,2.8185,-2.1456,8.6247,9
-0.403,1.3825,-1.4052,-0.2686,1.3964,3.0023,9.8146,-0.5826,-0.9892,0.504,2.8185,-2.1456,8.6247,10
-0.3891,1.5643,-2.3725,0.071,1.4356,3.0348,10.5827,-0.6919,-0.7852,0.695,2.9617,-2.6673,9.5195,11
-0.383,1.5643,-2.3725,0.071,1.4356,3.0348,10.5827,-0.6919,-0.7852,0.695,2.9617,-2.6673,9.5195,12
-0.3833,1.7657,-3.1211,0.4503,1.423,3.1717,11.418,-0.6999,-0.872,0.8606,3.1055,-3.1753,10.4954,13
-0.3843,1.7657,-3.1211,0.4503,1.423,3.1717,11.418,-0.6999,-0.872,0.8606,3.1055,-3.1753,10.4954,14
-0.3843,1.7657,-3.1211,0.4503,1.423,3.1717,11.418,-0.6999,-0.872,0.8606,3.1055,-3.1753,10.4954,15
-0.3844,1.8081,-3.3901,0.7963,1.4307,3.4404,12.214,-0.5914,-1.2629,0.9628,3.2941,-3.5234,11.3542,16
-0.3843,1.6436,-3.254,1.0758,1.5248,3.7702,12.8621,-0.3513,-1.7666,0.9309,3.4384,-3.6966,11.9775,17
-0.3843,1.6436,-3.254,1.0758,1.5248,3.7702,12.8621,-0.3513,-1.7666,0.9309,3.4384,-3.6966,11.9775,18
-0.3839,1.6436,-3.254,1.0758,1.5248,3.7702,12.8621,-0.3513,-1.7666,0.9309,3.4384,-3.6966,11.9775,19
-0.3834,1.3424,-2.9325,1.34,1.6564,4.0977,13.3095,-0.0691,-2.2082,0.8363,3.4723,-3.7202,12.4664,20
-0.3825,1.3424,-2.9325,1.34,1.6564,4.0977,13.3095,-0.0691,-2.2082,0.8363,3.4723,-3.7202,12.4664,21
-0.3791,1.0413,-2.5407,1.661,1.7741,4.4707,13.5826,0.1965,-2.4726,0.8758,3.4105,-3.5851,12.9703,22
-0.3765,1.0413,-2.5407,1.661,1.7741,4.4707,13.5826,0.1965,-2.4726,0.8758,3.4105,-3.5851,12.9703,23
-0.377,1.0413,-2.5407,1.661,1.7741,4.4707,13.5826,0.1965,-2.4726,0.8758,3.4105,-3.5851,12.9703,24
-0.3791,1.0413,-2.5407,1.661,1.7741,4.4707,13.5826,0.1965,-2.4726,0.8758,3.4105,-3.5851,12.9703,25
-0.3808,0.8122,-1.4621,2.2808,1.8877,4.9602,13.5567,0.463,-2.3834,1.1484,3.2791,-3.1812,13.31,25
-0.3796,0.8122,-1.4621,2.2808,1.8877,4.9602,13.5567,0.463,-2.3834,1.1484,3.2791,-3.1812,13.31,26
-0.3733,0.6813,0.9659,3.3846,1.9422,5.5002,13.0799,0.7109,-1.8047,1.5461,3.093,-2.4846,13.1624,27
-0.3606,0.6813,0.9659,3.3846,1.9422,5.5002,13.0799,0.7109,-1.8047,1.5461,3.093,-2.4846,13.1624,28
-0.3344,0.5542,3.2191,4.5426,1.7041,5.9795,12.3762,0.9671,-0.8819,1.8975,2.7303,-1.7575,12.5338,29
-0.3142,0.5542,3.2191,4.5426,1.7041,5.9795,12.3762,0.9671,-0.8819,1.8975,2.7303,-1.7575,12.5338,30
-0.2931,0.1103,3.2339,5.2773,1.0225,6.2756,11.7126,1.2715,-0.0393,2.2533,2.0509,-1.2255,11.6713,31
-0.2733,0.1103,3.2339,5.2773,1.0225,6.2756,11.7126,1.2715,-0.0393,2.2533,2.0509,-1.2255,11.6713,32
-0.2569,-0.6233,1.7415,5.6493,0.1267,6.284,11.1496,1.491,0.2962,2.8719,1.2892,-0.8955,10.8847,33
-0.2393,-0.6233,1.7415,5.6493,0.1267,6.284,11.1496,1.491,0.2962,2.8719,1.2892,-0.8955,10.8847,34
-0.2238,-1.2342,0.6527,5.6759,-0.6267,6.0748,10.7381,1.5492,0.1964,3.727,1.0289,-0.7606,10.3847,35
-0.2061,-1.2342,0.6527,5.6759,-0.6267,6.0748,10.7381,1.5492,0.1964,3.727,1.0289,-0.7606,10.3847,36
-0.1905,-1.644,0.157,5.0781,-1.0708,5.8026,10.4935,1.5834,0.1828,4.3357,1.5633,-0.8258,10.0794,37
-0.173,-1.644,0.157,5.0781,-1.0708,5.8026,10.4935,1.5834,0.1828,4.3357,1.5633,-0.8258,10.0794,38
-0.1553,-1.644,0.157,5.0781,-1.0708,5.8026,10.4935,1.5834,0.1828,4.3357,1.5633,-0.8258,10.0794,39
-0.1361,-2.0616,-0.4636,3.7761,-1.1584,5.4892,10.2838,1.69,0.7862,4.2362,2.5084,-0.9911,9.7429,40
-0.1186,-2.5592,-1.2603,2.1795,-0.8321,5.0736,9.9323,1.8009,2.1653,3.4201,3.2037,-1.0825,9.2541,41
-0.1016,-2.5592,-1.2603,2.1795,-0.8321,5.0736,9.9323,1.8009,2.1653,3.4201,3.2037,-1.0825,9.2541,42
-0.0853,-3.0828,-2.0419,0.8045,-0.1295,4.5652,9.3973,1.7879,3.8102,2.2576,3.3718,-1.009,8.659,42
-0.0708,-3.0828,-2.0419,0.8045,-0.1295,4.5652,9.3973,1.7879,3.8102,2.2576,3.3718,-1.009,8.659,43
-0.0574,-3.4923,-2.6203,-0.0993,0.7305,4.0452,8.7521,1.5542,5.0417,1.1853,3.1944,-0.8436,8.1015,44
-0.0455,-3.4923,-2.6203,-0.0993,0.7305,4.0452,8.7521,1.5542,5.0417,1.1853,3.1944,-0.8436,8.1015,45
-0.0348,-3.4708,-2.6261,-0.4951,1.4701,3.6243,8.1145,1.1199,5.5215,0.4804,2.866,-0.7009,7.7176,46
-0.0248,-3.4708,-2.6261,-0.4951,1.4701,3.6243,8.1145,1.1199,5.5215,0.4804,2.866,-0.7009,7.7176,47
-0.0144,-2.7828,-1.9893,-0.487,1.906,3.3774,7.6303,0.6243,5.2465,0.1801,2.4571,-0.5827,7.5753,48
-0.0026,-2.7828,-1.9893,-0.487,1.906,3.3774,7.6303,0.6243,5.2465,0.1801,2.4571,-0.5827,7.5753,49
0.0087,-1.578,-1.0154,-0.2689,2.0367,3.3171,7.4105,0.1897,4.4596,0.1804,2.0658,-0.4661,7.6442,50
0.0208,-1.578,-1.0154,-0.2689,2.0367,3.3171,7.4105,0.1897,4.4596,0.1804,2.0658,-0.4661,7.6442,51
0.0329,-1.578,-1.0154,-0.2689,2.0367,3.3171,7.4105,0.1897,4.4596,0.1804,2.0658,-0.4661,7.6442,52
0.0445,-0.2145,-0.0349,-0.0174,2.0077,3.3989,7.5021,-0.1375,3.4559,0.3608,1.8414,-0.4053,7.8531,53
0.0557,-0.2145,-0.0349,-0.0174,2.0077,3.3989,7.5021,-0.1375,3.4559,0.3608,1.8414,-0.4053,7.8531,54
0.0672,0.9948,0.8058,0.1821,1.9528,3.5727,7.89,-0.3537,2.4914,0.5921,1.873,-0.4362,8.2023,55
0.0733,1.8291,1.4269,0.2863,1.918,3.8395,8.4811,-0.4641,1.7071,0.7316,2.1222,-0.5229,8.7203,56
0.0789,1.8291,1.4269,0.2863,1.918,3.8395,8.4811,-0.4641,1.7071,0.7316,2.1222,-0.5229,8.7203,57
0.0837,2.1605,1.5806,0.2333,1.916,4.1835,9.1567,-0.5604,1.0619,0.6971,2.4478,-0.5967,9.3574,58
0.0886,2.1605,1.5806,0.2333,1.916,4.1835,9.1567,-0.5604,1.0619,0.6971,2.4478,-0.5967,9.3574,58
0.0947,2.0192,1.1344,0.0135,1.9545,4.5699,9.83,-0.7798,0.4738,0.5034,2.703,-0.6407,10.0159,59
0.102,2.0192,1.1344,0.0135,1.9545,4.5699,9.83,-0.7798,0.4738,0.5034,2.703,-0.6407,10.0159,60
0.1092,1.5696,0.2344,-0.3025,2.0121,4.9627,10.4666,-1.119,-0.0938,0.1973,2.8169,-0.7151,10.6175,61
0.1167,1.5696,0.2344,-0.3025,2.0121,4.9627,10.4666,-1.119,-0.0938,0.1973,2.8169,-0.7151,10.6175,62
0.1227,1.5696,0.2344,-0.3025,2.0121,4.9627,10.4666,-1.119,-0.0938,0.1973,2.8169,-0.7151,10.6175,63
0.1277,0.9646,-0.8531,-0.6295,2.0312,5.2903,11.0138,-1.4646,-0.6012,-0.1884,2.7765,-0.8342,11.1271,64
0.1305,0.311,-1.7755,-0.9006,1.9787,5.504,11.3799,-1.6712,-0.9577,-0.6404,2.6357,-0.9517,11.4934,65
0.1319,0.311,-1.7755,-0.9006,1.9787,5.504,11.3799,-1.6712,-0.9577,-0.6404,2.6357,-0.9517,11.4934,66
0.1318,0.311,-1.7755,-0.9006,1.9787,5.504,11.3799,-1.6712,-0.9577,-0.6404,2.6357,-0.9517,11.4934,67
0.1297,-0.2651,-2.2656,-1.0828,1.7873,5.6296,11.6626,-1.7904,-1.0795,-1.1266,2.4347,-1.1043,11.8212,68
0.124,-0.2651,-2.2656,-1.0828,1.7873,5.6296,11.6626,-1.7904,-1.0795,-1.1266,2.4347,-1.1043,11.8212,69
0.1103,-0.5951,-2.429,-1.3119,1.4062,5.7028,12.2048,-2.0818,-1.1863,-1.5374,2.1967,-1.5234,12.387,70
0.086,-0.5951,-2.429,-1.3119,1.4062,5.7028,12.2048,-2.0818,-1.1863,-1.5374,2.1967,-1.5234,12.387,71
0.0575,-0.5951,-2.429,-1.3119,1.4062,5.7028,12.2048,-2.0818,-1.1863,-1.5374,2.1967,-1.5234,12.387,72
0.0225,-0.6325,-2.4619,-1.8348,0.9834,5.6316,13.1495,-2.3451,-1.6197,-1.8216,2.0603,-2.3668,13.0454,73
-0.0085,-0.6749,-2.4757,-2.6216,0.7191,5.2669,14.0827,-2.088,-2.11,-2.1206,2.1706,-3.3127,13.2709,74
-0.0372,-0.6749,-2.4757,-2.6216,0.7191,5.2669,14.0827,-2.088,-2.11,-2.1206,2.1706,-3.3127,13.2709,75
-0.0603,-1.0659,-2.5455,-3.2737,0.7138,4.6585,14.4222,-1.5017,-2.5729,-2.551,2.4032,-3.9425,12.9526,75
-0.0813,-1.0659,-2.5455,-3.2737,0.7138,4.6585,14.4222,-1.5017,-2.5729,-2.551,2.4032,-3.9425,12.9526,76
-0.1017,-1.7213,-2.2843,-3.4279,0.8822,4.0249,13.978,-1.0896,-3.5541,-3.0786,2.4355,-4.2006,12.4736,77
-0.1259,-1.7213,-2.2843,-3.4279,0.8822,4.0249,13.978,-1.0896,-3.5541,-3.0786,2.4355,-4.2006,12.4736,78
-0.1498,-2.3868,-1.5079,-3.1322,0.871,3.5552,12.9601,-0.9702,-4.6579,-3.6369,2.1581,-4.1524,12.0872,79
-0.1819,-2.3868,-1.5079,-3.1322,0.871,3.5552,12.9601,-0.9702,-4.6579,-3.6369,2.1581,-4.1524,12.0872,80
-0.2055,-2.729,-0.2108,-2.7048,0.4021,3.3024,11.7226,-1.023,-4.7644,-4.1004,1.7327,-3.8806,11.7811,81
-0.2284,-2.729,-0.2108,-2.7048,0.4021,3.3024,11.7226,-1.023,-4.7644,-4.1004,1.7327,-3.8806,11.7811,82
-0.2517,-2.2204,1.5845,-2.5391,-0.263,3.193,10.6577,-0.9493,-3.6729,-4.2679,1.3502,-3.5389,11.5228,83
-0.2754,-2.2204,1.5845,-2.5391,-0.263,3.193,10.6577,-0.9493,-3.6729,-4.2679,1.3502,-3.5389,11.5228,84
-0.2995,-2.2204,1.5845,-2.5391,-0.263,3.193,10.6577,-0.9493,-3.6729,-4.2679,1.3502,-3.5389,11.5228,85
-0.3215,-0.9067,2.7866,-2.8537,-0.518,3.15,10.0698,-0.5029,-2.0009,-3.9951,1.1199,-3.2154,11.2385,86
-0.3421,0.5379,2.8591,-3.3316,-0.0969,3.1613,9.9061,0.3117,-0.5044,-3.3073,1.0965,-2.8859,10.7768,87
-0.3623,0.5379,2.8591,-3.3316,-0.0969,3.1613,9.9061,0.3117,-0.5044,-3.3073,1.0965,-2.8859,10.7768,88
-0.3794,1.7451,2.8474,-3.4947,0.7425,3.2245,9.8494,1.2576,0.3373,-2.4061,1.3,-2.4917,10.0814,89
-0.3953,1.7451,2.8474,-3.4947,0.7425,3.2245,9.8494,1.2576,0.3373,-2.4061,1.3,-2.4917,10.0814,90
-0.4103,2.5326,3.2789,-3.2175,1.5717,3.2776,9.6393,1.9887,0.7201,-1.5782,1.7147,-2.0568,9.268,91
-0.4249,2.5326,3.2789,-3.2175,1.5717,3.2776,9.6393,1.9887,0.7201,-1.5782,1.7147,-2.0568,9.268,92
-0.4383,2.5326,3.2789,-3.2175,1.5717,3.2776,9.6393,1.9887,0.7201,-1.5782,1.7147,-2.0568,9.268,92
-0.4525,2.7037,3.7352,-2.6455,2.0835,3.2483,9.2043,2.3494,1.1202,-1.043,2.2205,-1.6647,8.4547,93
-0.4652,2.4672,4.039,-2.0046,2.204,3.1367,8.685,2.3558,1.5137,-0.8307,2.5671,-1.3586,7.7237,94
-0.4794,2.4672,4.039,-2.0046,2.204,3.1367,8.685,2.3558,1.5137,-0.8307,2.5671,-1.3586,7.7237,95
-0.4885,2.1261,4.1978,-1.5026,2.0372,3.0086,8.2731,2.0516,1.5867,-0.7961,2.6045,-1.1505,7.1786,96
-0.4966,2.1261,4.1978,-1.5026,2.0372,3.0086,8.2731,2.0516,1.5867,-0.7961,2.6045,-1.1505,7.1786,97
-0.5027,1.7469,3.9357,-1.1985,1.752,2.9037,8.0562,1.5415,1.1575,-0.7119,2.4223,-1.0612,6.8949,98
-0.5057,1.7469,3.9357,-1.1985,1.752,2.9037,8.0562,1.5415,1.1575,-0.7119,2.4223,-1.0612,6.8949,99
-0.5068,1.3817,3.0295,-0.9763,1.4888,2.8205,8.0467,0.9508,0.2986,-0.4162,2.2377,-1.1093,6.8699,0
-0.506,1.3817,3.0295,-0.9763,1.4888,2.8205,8.0467,0.9508,0.2986,-0.4162,2.2377,-1.1093,6.8699,1
-0.5056,1.3817,3.0295,-0.9763,1.4888,2.8205,8.0467,0.9508,0.2986,-0.4162,2.2377,-1.1093,6.8699,2
-0.5023,1.1002,1.7799,-0.7176,1.3153,2.7796,8.2355,0.3719,-0.5539,0.0723,2.2253,-1.2757,7.0542,3
-0.4951,0.9282,0.68,-0.4013,1.2492,2.7949,8.5929,-0.1094,-1.0368,0.6112,2.3883,-1.5176,7.3974,4
-0.4853,0.9282,0.68,-0.4013,1.2492,2.7949,8.5929,-0.1094,-1.0368,0.6112,2.3883,-1.5176,7.3974,5
-0.4665,0.8817,-0.0526,-0.0493,1.2582,2.8569,9.0414,-0.4647,-1.108,1.0563,2.6524,-1.7927,7.8893,6
-0.4516,0.8817,-0.0526,-0.0493,1.2582,2.8569,9.0414,-0.4647,-1.108,1.0563,2.6524,-1.7927,7.8893,7
-0.4343,0.9785,-0.5893,0.2955,1.2845,2.9723,9.5193,-0.7175,-0.8516,1.3508,2.995,-2.0988,8.5536,8
-0.4162,0.9785,-0.5893,0.2955,1.2845,2.9723,9.5193,-0.7175,-0.8516,1.3508,2.995,-2.0988,8.5536,9
-0.4,1.2174,-1.2773,0.5702,1.3027,3.1492,10.0457,-0.8355,-0.4277,1.4981,3.3483,-2.4467,9.3517,10
-0.3889,1.2174,-1.2773,0.5702,1.3027,3.1492,10.0457,-0.8355,-0.4277,1.4981,3.3483,-2.4467,9.3517,11
-0.3846,1.4386,-2.2077,0.7675,1.3158,3.3845,10.6561,-0.7482,-0.1247,1.4886,3.5855,-2.7831,10.1616,12
-0.3852,1.4386,-2.2077,0.7675,1.3158,3.3845,10.6561,-0.7482,-0.1247,1.4886,3.5855,-2.7831,10.1616,13
-0.3867,1.4524,-3.0216,0.9584,1.3466,3.6598,11.3203,-0.4833,-0.217,1.3414,3.6765,-3.0375,10.8314,14
-0.3869,1.4524,-3.0216,0.9584,1.3466,3.6598,11.3203,-0.4833,-0.217,1.3414,3.6765,-3.0375,10.8314,15
-0.3869,1.2912,-3.1899,1.1888,1.3819,3.9231,11.935,-0.2191,-0.736,1.0895,3.6516,-3.1752,11.2592,16
-0.3867,1.2912,-3.1899,1.1888,1.3819,3.9231,11.935,-0.2191,-0.736,1.0895,3.6516,-3.1752,11.2592,17
-0.3863,1.0684,-2.813,1.4533,1.3534,4.1634,12.4571,-0.1372,-1.5377,0.8031,3.4731,-3.2118,11.6085,18
-0.386,1.0684,-2.813,1.4533,1.3534,4.1634,12.4571,-0.1372,-1.5377,0.8031,3.4731,-3.2118,11.6085,19
-0.3844,0.8793,-2.3601,1.7768,1.2693,4.5006,12.9184,-0.182,-2.3793,0.6565,3.1566,-3.1675,12.1384,20
-0.3815,0.8793,-2.3601,1.7768,1.2693,4.5006,12.9184,-0.182,-2.3793,0.6565,3.1566,-3.1675,12.1384,21
-0.3803,0.7221,-1.6607,2.2824,1.2306,5.0421,13.1966,-0.1126,-2.9208,0.723,2.8123,-2.9535,12.7295,22
-0.3827,0.7221,-1.6607,2.2824,1.2306,5.0421,13.1966,-0.1126,-2.9208,0.723,2.8123,-2.9535,12.7295,23
-0.3878,0.5633,-0.0942,3.1105,1.3131,5.6728,13.1325,0.1208,-2.9589,0.9357,2.5339,-2.5026,13.155,24
-0.3922,0.5633,-0.0942,3.1105,1.3131,5.6728,13.1325,0.1208,-2.9589,0.9357,2.5339,-2.5026,13.155,25
-0.3934,0.5518,2.3118,4.1361,1.4285,6.2512,12.8483,0.3495,-2.6441,1.26,2.4305,-2.0004,13.3948,25
-0.3866,0.5518,2.3118,4.1361,1.4285,6.2512,12.8483,0.3495,-2.6441,1.26,2.4305,-2.0004,13.3948,26
-0.3761,0.5518,2.3118,4.1361,1.4285,6.2512,12.8483,0.3495,-2.6441,1.26,2.4305,-2.0004,13.3948,27
-0.3599,0.6258,4.0733,4.8871,1.2964,6.7549,12.5541,0.5512,-2.0775,1.5697,2.4757,-1.6623,13.4064,28
-0.3426,0.3424,3.683,5.0782,0.7727,7.0714,12.2649,0.7872,-1.2313,1.7769,2.3628,-1.4507,13.135,29
-0.3246,0.3424,3.683,5.0782,0.7727,7.0714,12.2649,0.7872,-1.2313,1.7769,2.3628,-1.4507,13.135,30
-0.3054,-0.2599,2.0479,4.9561,0.1228,7.0868,11.9426,0.9711,-0.3874,2.1135,1.9964,-1.2338,12.6438,31
-0.2884,-0.2599,2.0479,4.9561,0.1228,7.0868,11.9426,0.9711,-0.3874,2.1135,1.9964,-1.2338,12.6438,32
-0.2742,-0.2599,2.0479,4.9561,0.1228,7.0868,11.9426,0.9711,-0.3874,2.1135,1.9964,-1.2338,12.6438,33
-0.2566,-0.7303,1.0739,4.799,-0.2962,6.8631,11.603,1.0751,0.2311,2.7809,1.7322,-1.0174,12.0394,34
-0.2407,-1.0919,0.9312,4.5689,-0.4305,6.5134,11.244,1.2206,0.7497,3.5844,1.8526,-0.914,11.3491,35
-0.2246,-1.0919,0.9312,4.5689,-0.4305,6.5134,11.244,1.2206,0.7497,3.5844,1.8526,-0.914,11.3491,36
-0.2069,-1.6324,0.8509,4.1086,-0.4115,6.0812,10.8478,1.487,1.4559,4.0986,2.3248,-0.9175,10.5011,37
-0.1903,-1.6324,0.8509,4.1086,-0.4115,6.0812,10.8478,1.487,1.4559,4.0986,2.3248,-0.9175,10.5011,38
-0.172,-2.4196,0.6063,3.3655,-0.2883,5.5453,10.3487,1.7944,2.5365,4.0395,2.8999,-0.9063,9.5057,39
-0.1554,-2.4196,0.6063,3.3655,-0.2883,5.5453,10.3487,1.7944,2.5365,4.0395,2.8999,-0.9063,9.5057,40
-0.1385,-3.2853,0.1808,2.4301,-0.0352,4.8973,9.683,1.9306,3.8886,3.4724,3.2929,-0.8162,8.4922,41
-0.1207,-3.2853,0.1808,2.4301,-0.0352,4.8973,9.683,1.9306,3.8886,3.4724,3.2929,-0.8162,8.4922,42
-0.1083,-4.0151,-0.5918,1.4685,0.3431,4.2048,8.9332,1.7818,5.3992,2.6997,3.3819,-0.6734,7.5978,43
-0.0976,-4.0151,-0.5918,1.4685,0.3431,4.2048,8.9332,1.7818,5.3992,2.6997,3.3819,-0.6734,7.5978,44
-0.0887,-4.3535,-1.3698,0.705,0.8262,3.5993,8.2581,1.4298,6.6635,2.0414,3.181,-0.5524,6.9884,45
-0.0806,-4.0264,-1.5164,0.3159,1.3255,3.1737,7.7397,1.0375,7.0149,1.6476,2.7891,-0.5185,6.7752,46
-0.071,-4.0264,-1.5164,0.3159,1.3255,3.1737,7.7397,1.0375,7.0149,1.6476,2.7891,-0.5185,6.7752,47
-0.0636,-3.0166,-1.0882,0.2733,1.6781,2.9367,7.435,0.6828,6.4677,1.4512,2.3639,-0.5643,6.9071,48
-0.053,-3.0166,-1.0882,0.2733,1.6781,2.9367,7.435,0.6828,6.4677,1.4512,2.3639,-0.5643,6.9071,49
-0.0416,-3.0166,-1.0882,0.2733,1.6781,2.9367,7.435,0.6828,6.4677,1.4512,2.3639,-0.5643,6.9071,50
-0.0294,-1.7064,-0.6393,0.3821,1.8466,2.877,7.4131,0.2917,5.4454,1.3502,2.0517,-0.6254,7.2738,51
-0.01,-0.5239,-0.2658,0.5205,1.935,3.0095,7.684,-0.1749,4.1615,1.3081,1.9312,-0.6701,7.8218,52
0.0045,-0.5239,-0.2658,0.5205,1.935,3.0095,7.684,-0.1749,4.1615,1.3081,1.9312,-0.6701,7.8218,53
0.0237,0.3632,0.3557,0.6786,1.9702,3.3355,8.1776,-0.6321,2.7632,1.298,1.9664,-0.7046,8.512,54
0.0365,0.3632,0.3557,0.6786,1.9702,3.3355,8.1776,-0.6321,2.7632,1.298,1.9664,-0.7046,8.512,55
0.0519,0.8878,1.0664,0.8093,1.8968,3.806,8.7843,-1.0198,1.4051,1.2514,2.0321,-0.72,9.2645,56
0.0624,0.8878,1.0664,0.8093,1.8968,3.806,8.7843,-1.0198,1.4051,1.2514,2.0321,-0.72,9.2645,57
0.0721,0.8878,1.0664,0.8093,1.8968,3.806,8.7843,-1.0198,1.4051,1.2514,2.0321,-0.72,9.2645,58
0.0819,1.0946,1.3483,0.8512,1.7071,4.3662,9.4645,-1.3946,0.1752,1.0622,2.0943,-0.7197,10.0032,59
0.0895,1.1143,1.0042,0.7345,1.4443,4.9194,10.2138,-1.7697,-0.8548,0.6891,2.2209,-0.7723,10.6933,60
0.0964,1.1143,1.0042,0.7345,1.4443,4.9194,10.2138,-1.7697,-0.8548,0.6891,2.2209,-0.7723,10.6933,61
0.1025,1.1143,1.0042,0.7345,1.4443,4.9194,10.2138,-1.7697,-0.8548,0.6891,2.2209,-0.7723,10.6933,62
0.1066,1.0211,0.1836,0.3531,1.2138,5.3203,10.9528,-2.009,-1.545,0.1939,2.4145,-0.9421,11.2854,63
0.1096,1.0211,0.1836,0.3531,1.2138,5.3203,10.9528,-2.009,-1.545,0.1939,2.4145,-0.9421,11.2854,64
0.1111,0.8452,-0.7977,-0.2988,1.1417,5.5056,11.5691,-2.0125,-1.8371,-0.3379,2.6136,-1.1985,11.7306,65
0.1109,0.8452,-0.7977,-0.2988,1.1417,5.5056,11.5691,-2.0125,-1.8371,-0.3379,2.6136,-1.1985,11.7306,66
0.1103,0.6249,-1.6428,-1.0322,1.2071,5.5473,12.0521,-1.9017,-1.9262,-0.8547,2.7276,-1.4755,12.1166,67
0.1076,0.6249,-1.6428,-1.0322,1.2071,5.5473,12.0521,-1.9017,-1.9262,-0.8547,2.7276,-1.4755,12.1166,68
0.0989,0.4215,-2.2619,-1.6647,1.255,5.573,12.5633,-1.8987,-2.0913,-1.3196,2.7202,-1.83,12.5977,69
0.0816,0.2466,-2.6403,-2.1925,1.204,5.5823,13.2062,-2.0956,-2.3452,-1.7318,2.6624,-2.3846,13.1261,70
0.0586,0.2466,-2.6403,-2.1925,1.204,5.5823,13.2062,-2.0956,-2.3452,-1.7318,2.6624,-2.3846,13.1261,71
0.0327,0.0054,-2.7388,-2.6356,1.0775,5.4297,13.7459,-2.1874,-2.4606,-2.1666,2.6165,-3.0357,13.3014,72
0.0041,0.0054,-2.7388,-2.6356,1.0775,5.4297,13.7459,-2.1874,-2.4606,-2.1666,2.6165,-3.0357,13.3014,73
-0.0228,0.0054,-2.7388,-2.6356,1.0775,5.4297,13.7459,-2.1874,-2.4606,-2.1666,2.6165,-3.0357,13.3014,74
-0.049,-0.3757,-2.6984,-2.8887,0.9315,5.0253,13.8137,-1.8001,-2.2633,-2.7029,2.5588,-3.4835,12.8295,75
-0.0717,-0.8502,-2.7057,-2.9172,0.8127,4.4732,13.3514,-1.2578,-1.8886,-3.3126,2.3979,-3.6264,12.044,75
-0.0978,-0.8502,-2.7057,-2.9172,0.8127,4.4732,13.3514,-1.2578,-1.8886,-3.3126,2.3979,-3.6264,12.044,76
-0.122,-1.3666,-2.5326,-2.8938,0.6848,3.9987,12.6179,-0.9699,-2.0423,-3.8374,2.0914,-3.6172,11.4477,77
-0.1518,-1.3666,-2.5326,-2.8938,0.6848,3.9987,12.6179,-0.9699,-2.0423,-3.8374,2.0914,-3.6172,11.4477,78
-0.18,-1.7676,-1.7956,-2.9134,0.4566,3.6772,11.8874,-0.7852,-3.0153,-4.164,1.7438,-3.5644,11.1643,79
-0.2112,-1.7676,-1.7956,-2.9134,0.4566,3.6772,11.8874,-0.7852,-3.0153,-4.164,1.7438,-3.5644,11.1643,80
-0.2361,-1.7676,-1.7956,-2.9134,0.4566,3.6772,11.8874,-0.7852,-3.0153,-4.164,1.7438,-3.5644,11.1643,81
-0.2635,-1.6394,-0.5664,-2.9878,0.1159,3.4524,11.3216,-0.5417,-3.7813,-4.2949,1.5256,-3.4702,11.0941,82
-0.2871,-1.6394,-0.5664,-2.9878,0.1159,3.4524,11.3216,-0.5417,-3.7813,-4.2949,1.5256,-3.4702,11.0941,83
-0.3106,-0.8331,0.6198,-3.2413,-0.1546,3.337,10.9679,-0.199,-3.3118,-4.2155,1.4892,-3.2996,11.0855,84
-0.3351,-0.8331,0.6198,-3.2413,-0.1546,3.337,10.9679,-0.199,-3.3118,-4.2155,1.4892,-3.2996,11.0855,85
-0.3578,0.1659,1.2132,-3.6774,-0.0928,3.3561,10.7509,0.311,-1.8266,-3.8827,1.5419,-2.9985,10.9115,86
-0.3842,0.1659,1.2132,-3.6774,-0.0928,3.3561,10.7509,0.311,-1.8266,-3.8827,1.5419,-2.9985,10.9115,87
-0.4016,0.1659,1.2132,-3.6774,-0.0928,3.3561,10.7509,0.311,-1.8266,-3.8827,1.5419,-2.9985,10.9115,88
-0.4198,1.0088,1.7968,-3.9997,0.3931,3.4211,10.4893,0.9234,-0.2565,-3.2988,1.6716,-2.5753,10.4205,89
-0.4343,1.0088,1.7968,-3.9997,0.3931,3.4211,10.4893,0.9234,-0.2565,-3.2988,1.6716,-2.5753,10.4205,90
-0.4504,1.6449,2.9872,-3.9286,1.1008,3.3864,10.0248,1.5066,0.9405,-2.623,1.9939,-2.1351,9.679,91
-0.4676,1.8638,3.8489,-3.5128,1.6787,3.2305,9.3472,1.9368,1.7151,-2.1252,2.4607,-1.7464,8.86,92
-0.4804,1.8638,3.8489,-3.5128,1.6787,3.2305,9.3472,1.9368,1.7151,-2.1252,2.4607,-1.7464,8.86,93
-0.4936,1.8638,3.8489,-3.5128,1.6787,3.2305,9.3472,1.9368,1.7151,-2.1252,2.4607,-1.7464,8.86,94
-0.5046,1.7129,3.934,-2.9625,1.962,3.0731,8.6032,2.0884,2.0301,-1.9406,2.8395,-1.3783,8.0859,95
-0.5136,1.4743,3.6993,-2.465,1.9872,2.9995,7.9974,1.9456,1.9473,-1.9532,2.9742,-1.0425,7.4718,96
-0.522,1.4743,3.6993,-2.465,1.9872,2.9995,7.9974,1.9456,1.9473,-1.9532,2.9742,-1.0425,7.4718,97
-0.5268,1.27,3.1235,-2.1425,1.8656,2.982,7.6742,1.5715,1.3859,-1.9058,2.8485,-0.8439,7.1385,98
-0.5297,1.27,3.1235,-2.1425,1.8656,2.982,7.6742,1.5715,1.3859,-1.9058,2.8485,-0.8439,7.1385,99
-0.5304,1.1185,1.9907,-1.9494,1.7327,2.9684,7.6934,1.0571,0.4761,-1.6106,2.5879,-0.866,7.0923,0
-0.5299,1.1185,1.9907,-1.9494,1.7327,2.9684,7.6934,1.0571,0.4761,-1.6106,2.5879,-0.866,7.0923,1
-0.5281,1.0225,0.5598,-1.7414,1.6277,2.9536,8.0289,0.4923,-0.2352,-1.0559,2.397,-1.0893,7.2725,2
-0.5219,1.0225,0.5598,-1.7414,1.6277,2.9536,8.0289,0.4923,-0.2352,-1.0559,2.397,-1.0893,7.2725,3
-0.5139,1.0225,0.5598,-1.7414,1.6277,2.9536,8.0289,0.4923,-0.2352,-1.0559,2.397,-1.0893,7.2725,4
-0.503,0.9795,-0.6194,-1.4556,1.5312,2.9693,8.5798,-0.0563,-0.478,-0.3707,2.3933,-1.4123,7.6266,5
-0.4853,0.9795,-0.6194,-1.4556,1.5312,2.9693,8.5798,-0.0563,-0.478,-0.3707,2.3933,-1.4123,7.6266,6
-0.4643,0.9683,-1.3673,-1.1263,1.4743,3.0247,9.2215,-0.5242,-0.3568,0.2854,2.558,-1.7483,8.1121,7
-0.4435,0.9625,-1.9861,-0.8122,1.5006,3.0943,9.8905,-0.8868,-0.0538,0.8117,2.806,-2.0927,8.7091,8
-0.4137,0.9625,-1.9861,-0.8122,1.5006,3.0943,9.8905,-0.8868,-0.0538,0.8117,2.806,-2.0927,8.7091,8
-0.3929,0.9625,-1.9861,-0.8122,1.5006,3.0943,9.8905,-0.8868,-0.0538,0.8117,2.806,-2.0927,8.7091,9
-0.3793,0.9507,-2.7168,-0.4893,1.5726,3.1783,10.6039,-1.1152,0.1139,1.163,3.0497,-2.4895,9.4404,10
-0.3733,0.9507,-2.7168,-0.4893,1.5726,3.1783,10.6039,-1.1152,0.1139,1.163,3.0497,-2.4895,9.4404,11
-0.374,0.9664,-3.124,-0.0521,1.6292,3.3075,11.3628,-1.1508,-0.198,1.2989,3.2888,-2.9287,10.2659,12
-0.3758,0.9664,-3.124,-0.0521,1.6292,3.3075,11.3628,-1.1508,-0.198,1.2989,3.2888,-2.9287,10.2659,13
-0.3775,1.0253,-2.8398,0.4981,1.6671,3.4954,12.0682,-0.9784,-0.9194,1.1624,3.5701,-3.3057,11.0018,14
-0.3796,1.0253,-2.8398,0.4981,1.6671,3.4954,12.0682,-0.9784,-0.9194,1.1624,3.5701,-3.3057,11.0018,15
-0.3813,1.0253,-2.2959,1.0495,1.6702,3.7363,12.5714,-0.6847,-1.6321,0.7773,3.7523,-3.517,11.5657,16
-0.3812,1.0253,-2.2959,1.0495,1.6702,3.7363,12.5714,-0.6847,-1.6321,0.7773,3.7523,-3.517,11.5657,17
-0.3807,0.9109,-1.8925,1.5231,1.6295,4.0305,12.8577,-0.4274,-2.1401,0.3657,3.6419,-3.5347,12.0915,18
-0.38,0.9109,-1.8925,1.5231,1.6295,4.0305,12.8577,-0.4274,-2.1401,0.3657,3.6419,-3.5347,12.0915,19
-0.378,0.8018,-1.5385,1.9301,1.5907,4.4335,13.0386,-0.3431,-2.473,0.218,3.2822,-3.3648,12.6586,20
-0.3758,0.8018,-1.5385,1.9301,1.5907,4.4335,13.0386,-0.3431,-2.473,0.218,3.2822,-3.3648,12.6586,21
-0.3745,0.7547,-0.9034,2.3815,1.6047,4.985,13.1231,-0.2959,-2.5901,0.4306,2.8457,-3.0003,13.1057,22
-0.3755,0.7547,-0.9034,2.3815,1.6047,4.985,13.1231,-0.2959,-2.5901,0.4306,2.8457,-3.0003,13.1057,23
-0.3764,0.6789,0.4317,3.0363,1.6984,5.5518,12.9759,0.0287,-2.4049,0.8789,2.483,-2.4633,13.2185,24
-0.3775,0.6789,0.4317,3.0363,1.6984,5.5518,12.9759,0.0287,-2.4049,0.8789,2.483,-2.4633,13.2185,25
-0.3781,0.6288,2.4577,3.9059,1.8161,5.9747,12.5943,0.5079,-1.928,1.4064,2.2909,-1.881,13.0091,25
-0.3714,0.6288,2.4577,3.9059,1.8161,5.9747,12.5943,0.5079,-1.928,1.4064,2.2909,-1.881,13.0091,26
-0.3603,0.7001,4.1846,4.7375,1.7461,6.311,12.1665,0.8748,-1.361,1.915,2.1947,-1.429,12.6186,27
-0.3426,0.7001,4.1846,4.7375,1.7461,6.311,12.1665,0.8748,-1.361,1.915,2.1947,-1.429,12.6186,28
-0.3244,0.5829,4.1347,5.2592,1.2345,6.6048,11.7867,1.1611,-0.8476,2.365,1.935,-1.1524,12.1607,29
-0.3034,0.5829,4.1347,5.2592,1.2345,6.6048,11.7867,1.1611,-0.8476,2.365,1.935,-1.1524,12.1607,30
-0.2862,0.1291,2.5048,5.4801,0.3491,6.7224,11.4716,1.3159,-0.3948,2.88,1.4387,-0.9754,11.7453,31
-0.2673,0.1291,2.5048,5.4801,0.3491,6.7224,11.4716,1.3159,-0.3948,2.88,1.4387,-0.9754,11.7453,32
-0.2524,-0.3139,1.1219,5.5364,-0.5047,6.6198,11.2318,1.2551,-0.1362,3.6171,1.0344,-0.8777,11.405,33
-0.2364,-0.3139,1.1219,5.5364,-0.5047,6.6198,11.2318,1.2551,-0.1362,3.6171,1.0344,-0.8777,11.405,34
-0.2206,-0.6221,0.5322,5.3828,-1.0321,6.3393,11.0047,1.2114,0.0045,4.4138,1.1098,-0.9351,11.0598,35
-0.2032,-0.6221,0.5322,5.3828,-1.0321,6.3393,11.0047,1.2114,0.0045,4.4138,1.1098,-0.9351,11.0598,36
-0.1878,-0.9815,0.1361,4.8921,-1.1948,5.9207,10.7506,1.43,0.4009,4.8615,1.711,-1.1266,10.554,37
-0.1696,-0.9815,0.1361,4.8921,-1.1948,5.9207,10.7506,1.43,0.4009,4.8615,1.711,-1.1266,10.554,38
-0.1517,-0.9815,0.1361,4.8921,-1.1948,5.9207,10.7506,1.43,0.4009,4.8615,1.711,-1.1266,10.554,39
-0.1342,-1.4371,-0.2864,4.0749,-1.0216,5.4511,10.4106,1.786,1.3284,4.6788,2.507,-1.2311,9.7485,40
-0.1179,-1.4371,-0.2864,4.0749,-1.0216,5.4511,10.4106,1.786,1.3284,4.6788,2.507,-1.2311,9.7485,41
-0.1004,-2.0411,-0.8684,3.0514,-0.5315,4.9501,9.8763,2.0054,2.6661,3.9489,3.1326,-1.1098,8.7016,42
-0.0858,-2.0411,-0.8684,3.0514,-0.5315,4.9501,9.8763,2.0054,2.6661,3.9489,3.1326,-1.1098,8.7016,42
-0.0696,-2.9827,-1.6934,1.9424,0.1804,4.3708,9.1782,1.9721,3.974,3.0263,3.5057,-0.8646,7.6774,43
-0.0568,-3.961,-2.3065,0.9027,0.9329,3.7721,8.4688,1.6783,5.0381,2.1742,3.7157,-0.6405,6.97,44
-0.0417,-3.961,-2.3065,0.9027,0.9329,3.7721,8.4688,1.6783,5.0381,2.1742,3.7157,-0.6405,6.97,45
-0.0318,-4.3336,-2.3253,0.0753,1.5474,3.3173,7.8836,1.1497,5.8293,1.4489,3.7823,-0.5047,6.7674,46
-0.0217,-4.3336,-2.3253,0.0753,1.5474,3.3173,7.8836,1.1497,5.8293,1.4489,3.7823,-0.5047,6.7674,47
-0.0111,-3.8057,-1.7837,-0.5261,1.9188,3.1117,7.5133,0.516,6.2295,0.8309,3.6371,-0.4532,7.0353,48
-0.0015,-3.8057,-1.7837,-0.5261,1.9188,3.1117,7.5133,0.516,6.2295,0.8309,3.6371,-0.4532,7.0353,49
0.0101,-2.6046,-0.9191,-0.9544,2.0538,3.1212,7.4164,-0.0499,6.0617,0.3077,3.2597,-0.471,7.5746,50
0.0198,-2.6046,-0.9191,-0.9544,2.0538,3.1212,7.4164,-0.0499,6.0617,0.3077,3.2597,-0.471,7.5746,51
0.0286,-1.1593,0.0264,-1.1962,2.0718,3.2491,7.58,-0.3975,5.2788,-0.1166,2.7997,-0.5553,8.23,52
0.0373,-1.1593,0.0264,-1.1962,2.0718,3.2491,7.58,-0.3975,5.2788,-0.1166,2.7997,-0.5553,8.23,53
0.0455,-1.1593,0.0264,-1.1962,2.0718,3.2491,7.58,-0.3975,5.2788,-0.1166,2.7997,-0.5553,8.23,54
0.0533,0.2656,0.9958,-1.2076,2.094,3.4341,7.9211,-0.4871,4.1304,-0.4021,2.4392,-0.6688,8.879,55
0.0595,1.4665,1.6805,-1.0607,2.139,3.6741,8.4012,-0.4928,2.9535,-0.5331,2.2371,-0.7383,9.4111,56
0.0654,1.4665,1.6805,-1.0607,2.139,3.6741,8.4012,-0.4928,2.9535,-0.5331,2.2371,-0.7383,9.4111,57
0.0739,2.2788,1.9182,-0.8752,2.178,4.0205,8.9956,-0.6447,1.8832,-0.6181,2.1578,-0.7091,9.854,58
0.0815,2.2788,1.9182,-0.8752,2.178,4.0205,8.9956,-0.6447,1.8832,-0.6181,2.1578,-0.7091,9.854,58
0.0891,2.6532,1.8023,-0.7093,2.1719,4.516,9.629,-1.025,0.8094,-0.7497,2.1106,-0.6125,10.2937,59
0.0972,2.6532,1.8023,-0.7093,2.1719,4.516,9.629,-1.025,0.8094,-0.7497,2.1106,-0.6125,10.2937,60
0.1042,2.6275,1.3028,-0.6237,2.0674,5.0863,10.2785,-1.5174,-0.3418,-0.881,2.0728,-0.5445,10.7271,61
0.1103,2.6275,1.3028,-0.6237,2.0674,5.0863,10.2785,-1.5174,-0.3418,-0.881,2.0728,-0.5445,10.7271,62
0.1152,2.2334,0.4322,-0.7615,1.8722,5.5811,10.9365,-1.8908,-1.363,-0.9469,2.1582,-0.5797,11.1128,63
0.1186,2.2334,0.4322,-0.7615,1.8722,5.5811,10.9365,-1.8908,-1.363,-0.9469,2.1582,-0.5797,11.1128,64
0.1184,1.5351,-0.6255,-1.1893,1.6727,5.9121,11.5057,-2.0155,-1.9356,-1.0252,2.413,-0.7216,11.4323,65
0.118,1.5351,-0.6255,-1.1893,1.6727,5.9121,11.5057,-2.0155,-1.9356,-1.0252,2.413,-0.7216,11.4323,66
0.1179,0.7446,-1.6902,-1.7717,1.4279,6.0903,12.0017,-1.9421,-1.9806,-1.3145,2.6832,-0.9822,11.7959,67
0.1149,0.7446,-1.6902,-1.7717,1.4279,6.0903,12.0017,-1.9421,-1.9806,-1.3145,2.6832,-0.9822,11.7959,68
0.1079,0.0954,-2.7569,-2.4631,1.0236,6.1541,12.6089,-1.8762,-1.6998,-1.9198,2.7849,-1.5137,12.3672,69
0.0934,0.0954,-2.7569,-2.4631,1.0236,6.1541,12.6089,-1.8762,-1.6998,-1.9198,2.7849,-1.5137,12.3672,70
0.0738,-0.3084,-3.6082,-3.322,0.5493,6.033,13.3334,-1.8631,-1.2872,-2.7774,2.6728,-2.3944,12.9647,71
