right_q,right_q_dot,left_q,left_q_dot,pelv_ang_1,pelv_ang_2,pelv_ang_3,pelv_acc_1,pelv_acc_1,pelv_acc_3,right_chest_ang_x,right_chest_ang_y,right_chest_ang_z,right_chest_acc_x,right_chest_acc_y,right_chest_acc_z,left_chest_ang_x,left_chest_ang_y,left_chest_ang_z,left_chest_acc_x,left_chest_acc_y,left_chest_acc_z,,,,Label
-0.2474,-0.0455,0,0.3629,-0.7834,0.3057,-0.5463,0.7137,9.654,0.8127,0.3394,0.571,-0.3684,-9.1544,0.4405,-0.9102,-0.1646,0.7065,-0.1889,-8.4222,-4.0829,-0.1162,0.236699,0,1698651226,0
-0.2474,-0.0399,0.0007,0.2975,-0.8204,0.4192,-0.6129,0.758,9.7868,0.7157,0.1576,0.5514,-0.3881,-9.1865,0.4897,-0.9015,-0.2079,0.5435,-0.1403,-8.476,-4.0887,-0.0831,0.248658,0,1698651226,1
-0.2473,-0.0209,0.0014,0.2546,-0.937,0.5287,-0.6818,0.8387,9.7574,0.6433,-0.0211,0.5601,-0.3957,-9.2327,0.5368,-0.8692,-0.2535,0.3564,-0.0669,-8.5299,-4.1103,-0.0421,0.253074,0,1698651226,1
-0.2473,-0.0012,0.003,0.2609,-0.9874,0.6137,-0.725,0.865,9.6961,0.6146,-0.1752,0.5506,-0.3862,-9.2879,0.5675,-0.8376,-0.2974,0.2417,-0.0038,-8.5827,-4.1113,-0.0067,0.25219,0,1698651226,2
-0.2473,-0.0018,0.005,0.2327,-0.9397,0.6985,-0.7518,0.8688,9.5493,0.6019,-0.3171,0.5458,-0.3635,-9.3382,0.5866,-0.8131,-0.3537,0.1893,0.0451,-8.633,-4.0998,0.0196,0.253814,0,1698651226,3
-0.2472,0.0021,0.007,0.2094,-0.9273,0.8146,-0.7709,0.9143,9.5382,0.5439,-0.4503,0.5344,-0.34,-9.377,0.6003,-0.7967,-0.4451,0.1452,0.0994,-8.6801,-4.0938,0.0853,0.255231,0,1698651226,4
-0.2469,0.007,0.0097,0.2352,-0.9254,0.9244,-0.7857,0.874,9.6567,0.5195,-0.5836,0.5247,-0.3072,-9.408,0.6254,-0.7811,-0.58,0.1407,0.1492,-8.7004,-4.0959,0.1467,0.250641,0,1698651226,4
-0.2468,0.0068,0.013,0.2656,-0.8855,1.0642,-0.7955,0.7914,9.7379,0.4925,-0.705,0.5359,-0.2587,-9.4104,0.6467,-0.7542,-0.7214,0.1339,0.2023,-8.7028,-4.0942,0.1807,0.244417,0,1698651226,5
-0.2467,0.0055,0.0168,0.3018,-0.7924,1.2282,-0.8108,0.7638,9.6929,0.4696,-0.8138,0.5497,-0.2048,-9.3871,0.6622,-0.7363,-0.8611,0.0996,0.2666,-8.6836,-4.0716,0.1888,0.240099,0,1698651226,6
-0.2467,0.0009,0.0205,0.3136,-0.6621,1.3343,-0.8321,0.7796,9.6425,0.4901,-0.9392,0.5468,-0.1519,-9.353,0.6927,-0.7237,-0.9867,0.015,0.337,-8.6745,-4.0286,0.2092,0.236864,0,1698651226,6
-0.2466,-0.0014,0.0237,0.307,-0.6836,1.5019,-0.8443,0.7905,9.8118,0.4394,-1.0903,0.5275,-0.1057,-9.3073,0.7373,-0.7033,-1.0927,-0.0627,0.3994,-8.6573,-3.9925,0.217,0.234198,0,1698651226,7
-0.2462,0.0009,0.0268,0.3018,-0.8034,1.656,-0.8708,0.8735,9.887,0.545,-1.2537,0.4955,-0.0562,-9.2632,0.7916,-0.6935,-1.1793,-0.1179,0.4546,-8.6063,-3.9672,0.2188,0.232143,0,1698651226,8
-0.2459,0.0114,0.0302,0.295,-0.8436,1.7245,-0.9,1.0158,9.6861,0.7304,-1.4173,0.4604,0.0062,-9.2252,0.8288,-0.699,-1.2543,-0.1837,0.5111,-8.5554,-3.94,0.2301,0.230582,0,1698651226,9
-0.2452,0.029,0.0338,0.2989,-0.7811,1.8339,-0.9133,1.0525,9.5378,0.7349,-1.592,0.4118,0.0656,-9.1962,0.8515,-0.7033,-1.3415,-0.2682,0.5695,-8.5373,-3.916,0.2648,0.228972,0,1698651226,9
-0.2435,0.065,0.0369,0.2974,-0.6882,2.0085,-0.921,1.0321,9.5244,0.6702,-1.7567,0.3792,0.1212,-9.1925,0.8694,-0.6837,-1.4475,-0.3525,0.6209,-8.5579,-3.9051,0.316,0.22709,0,1698651226,10
-0.2411,0.0965,0.0389,0.2765,-0.6886,2.2446,-0.9159,1.012,9.5969,0.6074,-1.8966,0.4024,0.184,-9.2114,0.8763,-0.6556,-1.5896,-0.4069,0.6642,-8.5892,-3.9126,0.3404,0.303769,0,1698651226,11
-0.2388,0.1127,0.0407,0.2537,-0.7885,2.4757,-0.9035,0.9825,9.6323,0.5728,-2.0121,0.4469,0.2617,-9.2411,0.8847,-0.6506,-1.7647,-0.4449,0.6935,-8.6312,-3.9428,0.3355,0.446265,0,1698651226,11
-0.2369,0.1361,0.0427,0.257,-0.8704,2.6662,-0.8631,0.8872,9.6612,0.5216,-2.1435,0.4397,0.3417,-9.292,0.8877,-0.6705,-1.9518,-0.4377,0.6933,-8.6945,-3.9724,0.29,0.561385,0,1698651226,12
-0.2352,0.1506,0.0447,0.2755,-0.8394,2.8296,-0.7832,0.7313,9.8598,0.442,-2.3172,0.3753,0.4055,-9.3649,0.9066,-0.7066,-2.1568,-0.3419,0.6565,-8.7912,-3.9879,0.2455,0.649358,0,1698651226,13
-0.2334,0.1468,0.0465,0.2865,-0.7156,3.0094,-0.6794,0.587,9.9186,0.4537,-2.4725,0.3269,0.473,-9.4349,0.9357,-0.7506,-2.3433,-0.3074,0.6458,-8.8952,-3.9858,0.207,0.718387,0,1698651226,13
-0.2313,0.168,0.0485,0.2963,-0.6442,3.1779,-0.551,0.5148,9.7809,0.505,-2.6281,0.2971,0.5416,-9.4954,0.9624,-0.8201,-2.5061,-0.3608,0.7031,-8.9939,-3.967,0.2044,0.774847,0,1698651226,14
-0.2285,0.2277,0.0502,0.2774,-0.6203,3.2739,-0.4334,0.3782,9.8635,0.4839,-2.7899,0.2807,0.5864,-9.5425,0.9975,-0.9059,-2.7578,-0.4841,0.8346,-9.1021,-3.9396,0.2477,0.81538,0,1698651226,15
-0.2241,0.2892,0.0513,0.2251,-0.5352,3.3408,-0.3566,0.1713,9.973,0.5116,-2.9667,0.3097,0.6186,-9.614,1.0418,-0.9645,-3.0103,-0.4835,0.9298,-9.2116,-3.9114,0.2534,0.832631,0,1698651226,16
-0.2178,0.3543,0.0517,0.1693,-0.4453,3.4115,-0.2747,0.0288,9.9485,0.5916,-3.1023,0.3485,0.6104,-9.7078,1.0322,-1.0961,-3.1452,-0.3314,0.934,-9.3647,-3.9127,0.2147,0.824459,0,1698651226,16
-0.2112,0.3989,0.0517,0.1256,-0.3575,3.4196,-0.1523,-0.1481,10.0156,0.6867,-3.2033,0.3453,0.5682,-9.7892,0.9929,-1.2394,-3.209,-0.2908,0.9874,-9.5163,-3.9635,0.1029,0.787955,0,1698651226,17
-0.2048,0.4448,0.0516,0.0974,-0.2314,3.3457,-0.0104,-0.3724,10.0313,0.8298,-3.3492,0.3778,0.5499,-9.8799,0.9694,-1.3208,-3.2807,-0.261,1.0605,-9.5875,-4.0187,-0.0746,0.71193,0,1698651226,18
-0.1988,0.4884,0.0515,0.0756,-0.1292,3.2466,0.1331,-0.5715,10.1181,0.8666,-3.4505,0.3656,0.5281,-9.9851,0.9294,-1.4084,-3.4183,-0.2105,1.1002,-9.6444,-4.0765,-0.1512,0.625047,0,1698651226,18
-0.1936,0.4817,0.0514,0.0598,-0.1427,3.1543,0.2667,-0.728,10.27,0.7188,-3.4832,0.3101,0.4744,-10.108,0.8941,-1.4812,-3.468,-0.1109,1.1541,-9.7341,-4.1727,-0.1236,0.559891,0,1698651226,19
-0.1891,0.452,0.0513,0.0559,-0.1685,2.9692,0.3679,-0.837,10.3364,0.6978,-3.4353,0.3538,0.4336,-10.2267,0.8346,-1.5886,-3.4001,-0.1468,1.2087,-9.8085,-4.2844,-0.1826,0.51078,0,1698651226,20
-0.1856,0.4284,0.0509,0.0436,-0.1971,2.7156,0.461,-0.9458,10.2599,0.8528,-3.3325,0.4185,0.4292,-10.3323,0.7475,-1.731,-3.2511,0.1969,1.0577,-9.8092,-4.3716,-0.4366,0.473704,0,1698651226,21
-0.1827,0.3987,0.05,-0.005,-0.2321,2.4546,0.5554,-1.0481,10.3095,0.8241,-3.1691,0.4253,0.4548,-10.5308,0.7659,-1.8748,-2.9802,0.3564,1.023,-9.8679,-4.4327,-0.5898,0.445561,0,1698651226,21
-0.1804,0.3562,0.0481,-0.0709,-0.0922,2.1378,0.599,-1.1076,10.722,0.7365,-3.0056,0.3922,0.4993,-10.7094,0.7981,-1.9624,-2.6863,0.0355,1.112,-9.9208,-4.4342,-0.6116,0.422375,0,1698651226,22
-0.178,0.345,0.0449,-0.1557,0.134,1.8652,0.5868,-1.0746,11.0475,0.7207,-2.8922,0.3827,0.539,-10.731,0.759,-1.9843,-2.4035,-0.068,1.0661,-9.8707,-4.388,-0.6485,0.401949,0,1698651226,23
-0.1749,0.3573,0.0402,-0.2474,0.2586,1.6612,0.5228,-0.8857,11.1028,0.7001,-2.7726,0.3933,0.5733,-10.6764,0.7481,-1.9758,-2.1276,-0.1561,1.0313,-9.7791,-4.3054,-0.7023,0.383796,0,1698651226,23
-0.1714,0.3713,0.0347,-0.3074,0.3187,1.4635,0.4194,-0.6054,10.9062,0.7797,-2.6763,0.427,0.5956,-10.5706,0.7666,-1.9623,-1.8511,-0.3396,1.0247,-9.6586,-4.1872,-0.7561,0.366423,0,1698651226,24
-0.1675,0.3848,0.029,-0.3441,0.4353,1.3066,0.3118,-0.4056,10.5686,0.8935,-2.5946,0.4643,0.5934,-10.4,0.812,-1.9566,-1.58,-0.598,1.0383,-9.4935,-4.0561,-0.7578,0.347362,0,1698651226,25
-0.1627,0.4241,0.0223,-0.4011,0.6349,1.223,0.1984,-0.2658,10.3572,0.9388,-2.498,0.4907,0.5882,-10.1392,0.8406,-1.9327,-1.3346,-0.7629,1.0148,-9.2732,-3.9041,-0.784,0.325792,0,1698651226,26
-0.1569,0.4621,0.0143,-0.4982,0.7483,1.1905,0.0677,-0.0894,10.209,1.0539,-2.4084,0.4975,0.5979,-9.825,0.8743,-1.9035,-1.1311,-0.9719,0.988,-9.0517,-3.6938,-0.8658,0.302794,0,1698651226,26
-0.151,0.486,0.0058,-0.5867,0.8397,1.1576,-0.0687,-0.0008,9.9741,1.2478,-2.3244,0.485,0.6275,-9.4827,0.9505,-1.8698,-1.0481,-1.2332,0.9544,-8.8194,-3.443,-0.9293,0.279918,0,1698651226,27
-0.1452,0.5044,-0.0038,-0.6786,0.9286,1.1772,-0.202,0.1162,9.6337,1.4211,-2.2498,0.448,0.6599,-9.1309,1.0446,-1.8719,-1.0612,-1.5204,0.9301,-8.591,-3.2298,-0.9381,0.25806,0,1698651226,28
-0.1395,0.5059,-0.0147,-0.8194,0.9686,1.2375,-0.3234,0.225,9.4025,1.5681,-2.2207,0.3715,0.6791,-8.8143,1.1413,-1.9142,-1.0739,-1.8177,0.8975,-8.3982,-3.0246,-0.971,0.2369,0,1698651226,28
-0.1341,0.5138,-0.0267,-0.9504,0.9273,1.3049,-0.4202,0.2533,9.3932,1.6263,-2.2485,0.2524,0.6821,-8.5478,1.2375,-1.9808,-1.0659,-2.0793,0.8492,-8.2355,-2.8169,-0.9951,0.215579,0,1698651226,29
-0.1294,0.501,-0.0395,-1.0459,0.8075,1.3998,-0.4835,0.232,9.4479,1.6457,-2.3621,0.0969,0.6631,-8.3261,1.3178,-2.0573,-1.0477,-2.3106,0.8202,-8.0865,-2.636,-1.0084,0.284525,0,1698651226,30
-0.1246,0.497,-0.0536,-1.1542,0.7527,1.5323,-0.5011,0.1286,9.3557,1.7171,-2.5577,-0.0725,0.6168,-8.1755,1.3743,-2.1095,-1.0608,-2.4936,0.8104,-8.0121,-2.5003,-1.0131,0.435211,0,1698651226,30
-0.1197,0.4926,-0.0686,-1.2461,0.7,1.6941,-0.4722,0.0537,9.1566,1.8068,-2.782,-0.2356,0.5476,-8.1211,1.4065,-2.1378,-1.1052,-2.6418,0.7986,-8.0282,-2.4166,-1.0232,0.561255,0,1698651226,31
-0.1154,0.4655,-0.084,-1.2868,0.6854,1.8069,-0.4165,-0.0951,9.1094,1.8807,-3.0023,-0.3691,0.47,-8.1481,1.4309,-2.1544,-1.1745,-2.7296,0.7843,-8.0941,-2.3754,-1.0064,0.659183,0,1698651226,32
-0.1114,0.4607,-0.1004,-1.3268,0.6528,1.9176,-0.3724,-0.2899,9.1569,1.9157,-3.2067,-0.454,0.391,-8.2313,1.4849,-2.1705,-1.2889,-2.6793,0.7536,-8.1923,-2.3562,-0.9383,0.735247,0,1698651226,33
-0.1064,0.4886,-0.1172,-1.3745,0.5627,2.07,-0.3467,-0.413,9.2369,1.8977,-3.3858,-0.4851,0.31,-8.3313,1.5581,-2.1713,-1.4544,-2.5807,0.7025,-8.3354,-2.3452,-0.844,0.794314,0,1698651226,33
-0.1002,0.5188,-0.134,-1.4699,0.4672,2.2063,-0.319,-0.4865,9.2212,1.8831,-3.5412,-0.4529,0.231,-8.4522,1.6272,-2.1818,-1.6622,-2.4512,0.6364,-8.5254,-2.345,-0.7636,0.840165,0,1698651226,34
-0.0936,0.5393,-0.1505,-1.5666,0.3214,2.3053,-0.2813,-0.5698,9.2253,1.862,-3.667,-0.3862,0.1516,-8.6215,1.7007,-2.2254,-1.8595,-2.2841,0.5799,-8.711,-2.3604,-0.7091,0.875671,0,1698651226,35
-0.0866,0.5871,-0.1671,-1.5515,0.157,2.3686,-0.2512,-0.6829,9.3838,1.7891,-3.751,-0.3216,0.0849,-8.8048,1.7717,-2.261,-2.0092,-2.1544,0.5488,-8.9061,-2.3814,-0.639,0.90288,0,1698651226,35
-0.0789,0.6404,-0.183,-1.5418,0.0523,2.3667,-0.2559,-0.8305,9.6633,1.6735,-3.7822,-0.2365,0.0467,-8.9659,1.829,-2.2693,-2.123,-2.0749,0.5502,-9.132,-2.4269,-0.5642,0.922754,0,1698651226,36
-0.0714,0.6791,-0.1973,-1.5485,0.0707,2.3242,-0.2843,-1.0524,9.9058,1.5741,-3.7341,-0.121,0.0247,-9.1215,1.8745,-2.2729,-2.1918,-2.0984,0.6118,-9.3505,-2.5004,-0.4847,0.934967,0,1698651226,37
-0.0643,0.6916,-0.2109,-1.4662,-0.0394,2.2819,-0.3089,-1.2622,9.888,1.5377,-3.5944,-0.0023,0.0119,-9.3017,1.9537,-2.2829,-2.1992,-2.1575,0.6827,-9.5232,-2.5824,-0.3987,0.936921,0,1698651226,38
-0.0579,0.652,-0.2237,-1.3921,-0.1505,2.197,-0.3715,-1.3725,9.8991,1.5073,-3.4219,0.1087,0.0087,-9.4543,1.9904,-2.3203,-2.13,-2.2299,0.7394,-9.6583,-2.7027,-0.3003,0.927229,0,1698651226,38
-0.0527,0.5861,-0.2357,-1.3664,-0.08,2.0263,-0.5045,-1.4988,10.1228,1.4295,-3.2343,0.2145,0.0097,-9.5792,1.9454,-2.3309,-2.1989,-2.448,0.821,-9.7435,-2.8501,-0.1801,0.903546,0,1698651226,39
-0.048,0.5472,-0.2478,-1.3478,-0.0482,1.8085,-0.693,-1.6132,10.2934,1.3415,-2.9974,0.3478,0.0156,-9.6906,1.8955,-2.2579,-2.2056,-2.8032,0.9278,-9.7568,-2.958,-0.0653,0.84898,0,1698651226,40
-0.0439,0.5074,-0.2595,-1.3315,0.0157,1.5583,-0.9272,-1.6261,10.3508,1.2667,-2.7018,0.5144,0.0193,-9.7424,1.8217,-2.1552,-2.0096,-3.0961,1.0151,-9.6808,-3.0359,0.0682,0.744575,0,1698651226,40
-0.0406,0.4487,-0.2702,-1.2779,0.1028,1.2694,-1.1764,-1.6591,10.3788,1.2314,-2.3452,0.6932,0.0136,-9.7412,1.7419,-2.0402,-1.9324,-3.114,1.0419,-9.3785,-3.0905,0.0904,0.616418,0,1698651226,41
-0.0383,0.385,-0.2803,-1.2311,0.1457,0.9803,-1.4364,-1.7479,10.4067,1.1644,-1.9455,0.8875,0.0118,-9.6861,1.666,-1.9124,-1.7745,-3.3163,1.0969,-9.1103,-3.1238,0.1263,0.497389,0,1698651226,42
-0.037,0.3217,-0.2896,-1.1718,0.1288,0.9227,-1.6998,-1.7986,10.5597,1.038,-1.6077,1.0563,-0.0143,-9.6125,1.5999,-1.7901,-1.5342,-3.5015,1.114,-8.9172,-3.1356,0.3058,0.397944,0,1698651226,43
-0.0358,0.2891,-0.2984,-1.1243,0.0926,0.8055,-1.964,-1.7988,10.5777,0.934,-1.4051,1.1951,-0.1045,-9.5101,1.5464,-1.7015,-1.391,-3.9129,1.2926,-8.7339,-3.0618,0.4572,0.312745,0,1698651226,43
-0.0341,0.2688,-0.3069,-1.1115,0.1566,0.435,-2.1922,-1.809,10.358,0.8842,-1.2902,1.3123,-0.2649,-9.3526,1.5134,-1.6552,-1.3659,-4.2989,1.3623,-8.7243,-2.9048,0.5356,0.142683,0,1698651226,44
-0.0316,0.2588,-0.3148,-1.0509,0.2224,0.1217,-2.3831,-1.7868,9.906,0.9073,-1.265,1.3411,-0.5062,-9.1896,1.5252,-1.6098,-1.5176,-3.8293,1.0713,-8.4942,-2.8048,0.4764,-0.097913,0,1698651226,45
-0.0286,0.2564,-0.3218,-0.9808,0.2634,-0.1055,-2.516,-1.6883,9.4213,0.9244,-1.2973,1.3583,-0.7541,-9.0296,1.5378,-1.5695,-1.5818,-3.3418,0.8121,-8.2353,-2.728,0.4609,-0.299096,0,1698651226,45
-0.0255,0.2648,-0.328,-0.8938,0.2756,-0.3357,-2.5852,-1.5725,9.2035,0.9141,-1.3046,1.3726,-0.9084,-8.8604,1.5334,-1.5457,-1.4979,-2.9341,0.5698,-8.1344,-2.66,0.4756,-0.45558,0,1698651226,46
-0.0225,0.2569,-0.3328,-0.7999,0.1308,-0.5349,-2.5835,-1.5172,8.9981,0.8958,-1.3366,1.2362,-1.0086,-8.7042,1.5255,-1.5227,-1.4881,-2.8851,0.4498,-8.0649,-2.6825,0.5493,-0.577133,0,1698651226,47
-0.0201,0.229,-0.3363,-0.7137,0.0695,-0.6726,-2.4893,-1.4952,9.0488,0.7954,-1.3802,0.988,-1.0787,-8.5935,1.5338,-1.4973,-1.5307,-2.7209,0.3208,-8.1456,-2.6511,0.884,-0.671546,0,1698651226,48
-0.0178,0.2302,-0.3395,-0.6327,0.1386,-0.8401,-2.3659,-1.5291,9.1516,0.7151,-1.3673,0.6589,-1.106,-8.5137,1.5471,-1.508,-1.4565,-2.03,0.1243,-8.1834,-2.6115,0.9627,-0.74488,0,1698651226,48
-0.0144,0.2673,-0.3432,-0.5616,-0.2496,-1.0591,-2.1655,-1.5324,9.3262,0.414,-1.449,0.0298,-1.189,-8.4188,1.663,-1.4877,-1.034,-0.8315,-0.1874,-8.1733,-2.527,0.8136,-0.801841,0,1698651226,49
-0.0098,0.3083,-0.3466,-0.4868,-0.3385,-1.1429,-2.0215,-1.5706,9.2743,0.3031,-1.471,0.1063,-1.1805,-8.4029,1.778,-1.4589,-0.8107,-0.5301,-0.2176,-8.2568,-2.4557,0.8412,-0.844265,0,1698651226,50
-0.0046,0.325,-0.3484,-0.3816,-0.4033,-1.2079,-1.815,-1.5537,9.3067,0.1996,-1.4054,0.4547,-1.1245,-8.4089,1.8945,-1.409,-0.6339,-0.325,-0.2462,-8.3398,-2.3777,0.9656,-0.788223,0,1698651226,50
-0.0001,0.3162,-0.3486,-0.2637,-0.5192,-1.2848,-1.5873,-1.503,9.544,0.0615,-1.2019,0.859,-1.0154,-8.4256,1.9989,-1.3753,-0.4889,-0.1657,-0.265,-8.4091,-2.3328,1.055,-0.671387,0,1698651226,51
0.0036,0.3198,-0.3486,-0.193,-0.7243,-1.4093,-1.3935,-1.4905,9.6453,0.0148,-0.8376,1.0862,-0.8957,-8.4378,2.0375,-1.3882,-0.3235,-0.1757,-0.2267,-8.4517,-2.3576,1.1041,-0.598757,0,1698651226,52
0.0079,0.3566,-0.3484,-0.1424,-0.9134,-1.5214,-1.2122,-1.4587,9.4687,0.0919,-0.7122,0.9124,-0.8658,-8.44,2.025,-1.3784,-0.0612,-0.4093,-0.1382,-8.4784,-2.3816,1.1486,-0.509861,0,1698651226,52
0.0131,0.3839,-0.3482,-0.1102,-1.0535,-1.5615,-0.9955,-1.3524,9.2484,0.112,-0.8851,0.6785,-0.8715,-8.4354,2.0161,-1.3598,0.2491,-0.6965,-0.0499,-8.4903,-2.3832,1.1977,-0.392868,0,1698651226,53
0.0178,0.3761,-0.3477,-0.0859,-1.193,-1.5731,-0.7744,-1.174,9.3047,0.0902,-0.9613,0.7483,-0.8138,-8.4499,1.9985,-1.339,0.514,-0.9246,0.0196,-8.4824,-2.3604,1.3237,-0.293581,0,1698651226,54
0.0213,0.3469,-0.3464,-0.0421,-1.3209,-1.5796,-0.5302,-1.0778,9.3933,0.167,-0.8007,0.8757,-0.7118,-8.4922,1.9864,-1.3559,0.6865,-1.1137,0.0915,-8.4846,-2.3552,1.4919,-0.220844,0,1698651226,55
0.0245,0.3256,-0.3441,0.0292,-1.3964,-1.5778,-0.2665,-1.0951,9.1674,0.2519,-0.566,0.9176,-0.625,-8.5061,1.9738,-1.4012,0.8204,-1.2487,0.1336,-8.4903,-2.3624,1.5626,-0.166979,0,1698651226,55
0.0282,0.3225,-0.3405,0.1326,-1.5096,-1.5235,-0.0113,-1.0687,8.815,0.2956,-0.417,0.8752,-0.5805,-8.4896,1.9678,-1.4222,0.9518,-1.1601,0.1749,-8.4608,-2.3592,1.5342,-0.126706,0,1698651226,56
0.032,0.3268,-0.3352,0.2471,-1.6043,-1.4209,0.2491,-1.0808,8.6054,0.3373,-0.3379,0.815,-0.5647,-8.4953,1.9383,-1.4299,1.0393,-1.1995,0.2641,-8.444,-2.3476,1.5068,-0.096111,0,1698651226,57
0.0355,0.3172,-0.3287,0.3337,-1.4802,-1.3514,0.4838,-1.1354,8.4634,0.4285,-0.2449,0.8082,-0.5414,-8.5534,1.8771,-1.4546,1.0254,-1.3579,0.3018,-8.4574,-2.3113,1.4673,-0.072209,0,1698651226,57
0.0389,0.3187,-0.3223,0.3774,-1.2014,-1.329,0.678,-1.1641,8.2922,0.5672,-0.0934,0.7817,-0.5045,-8.6482,1.8368,-1.5447,0.9303,-1.2867,0.2638,-8.498,-2.2749,1.3856,-0.051412,0,1698651226,58
0.0431,0.336,-0.3164,0.3966,-0.9619,-1.2843,0.8246,-1.195,8.3057,0.5934,0.0925,0.6733,-0.4716,-8.7449,1.8162,-1.64,0.8028,-1.0328,0.1652,-8.5665,-2.2629,1.3082,-0.02987,0,1698651226,59
0.0478,0.3373,-0.3105,0.4137,-0.7763,-1.1908,0.9722,-1.1843,8.402,0.5691,0.4732,0.4999,-0.3849,-8.9782,1.8501,-1.7785,0.493,-0.0871,-0.2164,-8.7918,-2.2813,1.1473,-0.004706,0,1698651226,60
0.0525,0.3505,-0.3051,0.4321,-0.4724,-1.1198,0.9866,-1.1091,8.6636,0.5064,0.651,0.3922,-0.3498,-9.0998,1.888,-1.8355,0.3481,0.175,-0.3475,-8.9355,-2.3328,1.1026,0.024937,0,1698651226,60
0.057,0.3509,-0.3006,0.4318,-0.0309,-1.0528,0.9782,-1.075,9.1087,0.3746,0.7499,0.2574,-0.3446,-9.2354,1.9474,-1.8661,0.2346,0.2832,-0.4306,-9.0845,-2.3816,1.1213,-0.055789,0,1698651227,61
0.061,0.3564,-0.2969,0.4081,0.3453,-1.0109,0.9709,-1.0905,9.4346,0.3011,0.7892,0.1425,-0.3423,-9.3932,2.0106,-1.8544,0.178,0.3246,-0.5053,-9.2217,-2.4289,1.1614,-0.22993,0,1698651227,62
0.0647,0.3764,-0.2936,0.375,0.4432,-0.9708,0.9779,-1.1376,9.5015,0.2539,0.8359,0.0345,-0.3277,-9.5306,2.0546,-1.8253,0.1997,0.2154,-0.5421,-9.3338,-2.4822,1.2135,-0.367368,0,1698651227,62
0.0688,0.3839,-0.2913,0.3256,0.5507,-0.9396,1.0021,-1.2305,9.5649,0.1362,0.868,-0.1712,-0.3283,-9.6633,2.0771,-1.7756,0.2438,0.0393,-0.5792,-9.406,-2.5113,1.2804,-0.473314,0,1698651227,63
0.0729,0.3832,-0.2907,0.2553,0.6607,-0.9341,1.0456,-1.3048,9.6489,0.0283,0.8613,-0.429,-0.3339,-9.7905,2.0942,-1.6863,0.2755,-0.0907,-0.6591,-9.4556,-2.5376,1.3511,-0.5566,0,1698651227,64
0.0764,0.3443,-0.291,0.1995,0.7597,-0.9631,1.1255,-1.3962,9.7545,-0.0507,0.8493,-0.6608,-0.3229,-9.8694,2.1145,-1.6123,0.3308,-0.201,-0.7681,-9.5096,-2.6001,1.4172,-0.621348,0,1698651227,65
0.0791,0.3109,-0.291,0.1402,0.8358,-1.0265,1.2182,-1.5469,9.971,-0.1314,0.8383,-0.886,-0.2956,-9.9096,2.1161,-1.5696,0.4666,-0.3531,-0.8851,-9.5262,-2.6889,1.4969,-0.669708,0,1698651227,65
0.0817,0.3046,-0.291,0.0849,0.8702,-1.1396,1.2688,-1.646,10.0817,-0.155,0.8596,-1.0737,-0.2523,-9.9136,2.0949,-1.5337,0.7093,-0.5769,-1.0049,-9.5174,-2.7937,1.5981,-0.703565,0,1698651227,66
0.0848,0.3137,-0.291,0.0686,0.9045,-1.277,1.2571,-1.6984,9.9961,-0.0803,0.9477,-1.2757,-0.2024,-9.9188,2.0356,-1.5005,1.0325,-0.8565,-1.127,-9.4973,-2.9062,1.671,-0.712841,0,1698651227,67
0.0881,0.3212,-0.2908,0.0675,0.9508,-1.3981,1.1977,-1.7233,9.96,0.021,1.1167,-1.4727,-0.1458,-9.9571,1.9281,-1.4534,1.3593,-1.1673,-1.2372,-9.4757,-3.0354,1.7042,-0.677966,0,1698651227,67
0.0911,0.2976,-0.2901,0.0791,0.8266,-1.4845,1.068,-1.6243,10.3121,-0.0123,1.3494,-1.6743,-0.0933,-10.0285,1.8302,-1.409,1.6217,-1.4702,-1.3406,-9.5052,-3.1607,1.6941,-0.563237,0,1698651227,68
0.0933,0.2688,-0.2882,0.108,0.6483,-1.5806,0.8855,-1.492,10.8491,-0.0665,1.5736,-1.8768,-0.0593,-10.1212,1.7659,-1.3964,1.8128,-1.6951,-1.4466,-9.5642,-3.2703,1.6767,-0.417901,0,1698651227,69
0.0941,0.2388,-0.2851,0.1393,0.8199,-1.7098,0.7284,-1.3949,11.2956,0.0373,1.7622,-2.0453,-0.0414,-10.2233,1.7037,-1.4414,1.9433,-1.8733,-1.5373,-9.6258,-3.3605,1.6624,-0.309522,0,1698651227,70
0.0941,0.1794,-0.2815,0.1842,0.9806,-1.7974,0.5714,-1.2195,11.4933,0.3328,1.8933,-2.2102,-0.0284,-10.3382,1.6395,-1.516,2.0301,-2.0338,-1.59,-9.7493,-3.4055,1.6242,-0.227818,0,1698651227,70
0.094,0.1291,-0.278,0.2203,0.9144,-1.8526,0.3787,-0.9838,11.3483,0.742,1.9424,-2.3903,-0.0226,-10.4633,1.5718,-1.5915,2.0473,-2.0477,-1.6292,-9.9272,-3.4353,1.5569,-0.167257,0,1698651227,71
0.0938,0.106,-0.2745,0.228,0.9781,-1.9041,0.1831,-0.7914,11.2177,1.1683,1.9293,-2.5191,-0.0444,-10.5804,1.4917,-1.6855,1.9286,-1.9077,-1.6647,-10.0919,-3.4689,1.4464,-0.121922,0,1698651227,72
0.0935,0.0811,-0.2717,0.2289,1.1392,-1.8809,-0.0013,-0.631,11.2053,1.5289,1.9047,-2.4989,-0.0853,-10.6672,1.411,-1.8143,1.6838,-1.6652,-1.6735,-10.2329,-3.4923,1.2924,-0.090021,0,1698651227,72
0.0928,0.0499,-0.2696,0.2132,1.3428,-1.7454,-0.2365,-0.4594,11.4122,1.6378,1.9095,-2.3921,-0.1332,-10.7158,1.3307,-1.9633,1.365,-1.3217,-1.6651,-10.3342,-3.5057,1.088,-0.129456,0,1698651227,73
0.0901,-0.0199,-0.268,0.1972,1.6547,-1.309,-0.4601,-0.2858,11.6265,1.5235,1.8686,-1.9038,-0.3237,-10.6358,1.1702,-2.2598,0.6337,-0.4575,-1.5677,-10.361,-3.5321,0.7517,-0.230835,0,1698651227,74
0.0845,-0.1654,-0.2655,0.2354,1.738,-1.0889,-0.3347,-0.3292,11.2772,1.5426,1.8124,-1.5412,-0.4002,-10.5319,1.1166,-2.2975,0.332,0.028,-1.4857,-10.2995,-3.554,0.5529,-0.324259,0,1698651227,74
0.0752,-0.3428,-0.2605,0.3288,1.5965,-0.872,-0.1222,-0.4051,11.1328,1.4903,1.7423,-1.3023,-0.4468,-10.4076,1.0548,-2.3124,0.0977,0.6607,-1.4297,-10.1394,-3.54,0.3995,-0.413174,0,1698651227,75
0.0638,-0.5243,-0.2532,0.443,1.4627,-0.7018,0.117,-0.4742,10.8315,1.482,1.658,-1.1797,-0.4796,-10.2093,0.9698,-2.308,-0.0996,1.1641,-1.3334,-9.9531,-3.4892,0.3795,-0.495709,0,1698651227,76
0.0519,-0.7156,-0.245,0.5232,1.3248,-0.5304,0.3291,-0.5102,10.5459,1.4199,1.5628,-1.0982,-0.4531,-9.9435,0.8474,-2.308,-0.2852,1.3412,-1.1674,-9.7656,-3.487,0.3998,-0.558363,0,1698651227,77
0.0392,-0.8426,-0.2364,0.5699,1.29,-0.3981,0.5366,-0.6035,10.3756,1.3846,1.5586,-0.9828,-0.384,-9.6662,0.7521,-2.3104,-0.3749,1.4489,-1.0546,-9.4982,-3.5008,0.4135,-0.600654,0,1698651227,77
0.025,-0.9238,-0.2278,0.6027,1.4335,-0.3524,0.7676,-0.7595,10.1746,1.4747,1.6424,-0.8506,-0.2988,-9.3373,0.6786,-2.2366,-0.3976,1.5982,-1.0088,-9.141,-3.4537,0.3548,-0.631317,0,1698651227,78
0.0097,-1.0171,-0.2191,0.6361,1.3591,-0.2684,0.9419,-0.757,10.0017,1.4763,1.7176,-0.7054,-0.178,-8.95,0.5686,-2.1555,-0.3991,1.6852,-0.9672,-8.7532,-3.434,0.2582,-0.652372,0,1698651227,79
-0.0056,-1.0713,-0.2102,0.6572,1.2451,-0.1827,1.0645,-0.7435,9.8842,1.4089,1.8647,-0.6539,-0.0953,-8.6158,0.4327,-2.1118,-0.3424,1.6173,-0.8924,-8.3998,-3.4823,0.1725,-0.661841,0,1698651227,79
-0.022,-1.0868,-0.2014,0.6666,1.252,-0.2448,1.1307,-0.7983,9.6946,1.4634,2.0053,-0.6616,-0.0362,-8.3479,0.3134,-2.0121,-0.2054,1.4887,-0.8333,-8.0847,-3.5477,0.0789,-0.662256,0,1698651227,80
-0.0391,-1.1633,-0.193,0.6885,1.1713,-0.3399,1.1191,-0.7588,9.3362,1.572,2.0771,-0.6429,0.0541,-8.119,0.1991,-1.9183,-0.0018,1.3428,-0.8028,-7.821,-3.6078,0.0004,-0.648735,0,1698651227,81
-0.0551,-1.2364,-0.1854,0.6949,1.0311,-0.4155,1.0581,-0.6185,9.216,1.5407,2.1516,-0.6923,0.154,-7.9529,0.0682,-1.8703,0.2492,1.2107,-0.7894,-7.6346,-3.6793,-0.1026,-0.605174,0,1698651227,82
-0.071,-1.3161,-0.1782,0.7003,0.9042,-0.55,0.9613,-0.5697,9.3012,1.4976,2.2035,-0.7741,0.2649,-7.8878,-0.0312,-1.8152,0.543,1.1396,-0.7832,-7.5169,-3.8094,-0.2451,-0.516518,0,1698651227,82
-0.0867,-1.3933,-0.1713,0.686,0.8228,-0.7056,1.0489,-0.6178,9.2912,1.5256,2.2029,-0.9152,0.391,-7.9233,-0.1097,-1.7576,0.9007,1.0444,-0.7681,-7.4978,-3.9487,-0.3481,-0.389013,0,1698651227,83
-0.1009,-1.3782,-0.1652,0.6591,0.7595,-0.847,1.0632,-0.5772,9.3658,1.4833,2.1692,-1.0819,0.4941,-8.038,-0.1698,-1.706,1.2928,1.0309,-0.7846,-7.5806,-4.0454,-0.3765,-0.259886,0,1698651227,84
-0.1146,-1.3283,-0.1592,0.6547,0.6132,-0.9644,0.8042,-0.4488,9.4707,1.406,2.1353,-1.2412,0.5358,-8.2332,-0.1789,-1.6538,1.6493,0.9795,-0.7675,-7.7461,-4.1382,-0.3371,-0.157683,0,1698651227,84
-0.1286,-1.3213,-0.1526,0.6365,0.3596,-1.1075,0.4792,-0.1358,9.8844,1.3266,2.0836,-1.3809,0.4964,-8.7697,-0.0807,-1.5712,2.0175,0.7219,-0.6528,-8.2532,-4.2478,-0.0567,-0.042831,0,1698651227,85
-0.1428,-1.3583,-0.1457,0.6182,0.1935,-1.108,0.4068,0.0896,10.0561,1.3872,2.068,-1.3337,0.4481,-9.0699,0.0152,-1.5366,2.0614,0.8827,-0.6617,-8.5038,-4.2451,0.0527,0.101759,0,1698651227,86
-0.1569,-1.3295,-0.1384,0.6434,0.0764,-1.064,0.4094,0.3067,10.1106,1.4295,2.0721,-1.1854,0.4107,-9.3514,0.1495,-1.4667,2.0008,0.9505,-0.6252,-8.7444,-4.2251,0.1596,0.239114,0,1698651227,87
-0.1706,-1.2958,-0.1306,0.6761,0.0937,-1.0316,0.4881,0.4702,10.2051,1.4324,2.0437,-1.054,0.3594,-9.568,0.2875,-1.4041,1.8456,1.0048,-0.5671,-8.927,-4.1559,0.2378,0.363771,0,1698651227,87
-0.1842,-1.272,-0.1226,0.6858,0.0944,-0.9442,0.6098,0.5491,10.2114,1.4365,1.9859,-0.8991,0.3034,-9.691,0.4027,-1.3536,1.6228,1.0266,-0.4827,-9.052,-4.0866,0.2807,0.477454,0,1698651227,88
-0.1975,-1.2564,-0.1144,0.6779,0.1213,-0.7988,0.769,0.5949,10.1695,1.4458,1.9316,-0.7149,0.2692,-9.7184,0.4802,-1.3037,1.3551,1.1211,-0.4146,-9.1064,-4.0232,0.3671,0.575304,0,1698651227,89
-0.2094,-1.2266,-0.1065,0.6923,0.1831,-0.662,0.9362,0.6649,10.0378,1.3902,1.9159,-0.5138,0.2529,-9.6836,0.5129,-1.2654,1.1455,1.3913,-0.3557,-9.0379,-3.9608,0.3822,0.653198,0,1698651227,89
-0.2193,-1.1368,-0.0982,0.7179,0.266,-0.5225,1.0907,0.6362,9.8254,1.3099,1.9292,-0.3065,0.2582,-9.5726,0.535,-1.2211,1.0355,1.6941,-0.2708,-8.923,-3.8942,0.357,0.690277,0,1698651227,90
-0.2282,-1.0751,-0.0894,0.7298,0.3518,-0.3536,1.2253,0.6021,9.6548,1.2366,1.9413,-0.1259,0.2946,-9.3781,0.5554,-1.1679,0.9399,1.8892,-0.1503,-8.8295,-3.8512,0.4248,0.648523,0,1698651227,91
-0.2359,-1.0049,-0.0806,0.7615,0.3903,-0.1739,1.3434,0.6222,9.4793,1.1909,1.9779,0.0058,0.3545,-9.1672,0.5611,-1.1145,0.8323,2.1149,-0.055,-8.6855,-3.7954,0.4754,0.529327,0,1698651227,91
-0.2419,-0.8977,-0.0721,0.7912,0.4926,-0.036,1.4479,0.5961,9.475,1.1324,2.0387,0.0903,0.4163,-8.9636,0.5589,-1.0824,0.7548,2.4564,-0.0099,-8.5017,-3.727,0.4414,0.333323,0,1698651227,92
-0.2467,-0.8021,-0.0636,0.8226,0.6419,0.0839,1.5266,0.5381,9.3799,1.0677,2.0928,0.1576,0.4703,-8.7584,0.5544,-1.0482,0.6869,2.7651,0.2236,-8.2997,-3.7077,0.3992,0.081213,0,1698651227,93
-0.2511,-0.724,-0.0555,0.8175,0.7102,0.229,1.574,0.4743,9.3548,0.9822,2.1306,0.2124,0.531,-8.565,0.5638,-0.97,0.6043,2.9341,0.4187,-8.1302,-3.6853,0.4151,-0.153317,0,1698651227,94
-0.2552,-0.6476,-0.0482,0.7773,0.6124,0.398,1.5708,0.5724,9.5237,0.8561,2.1386,0.2439,0.6122,-8.4116,0.5995,-0.8844,0.5564,3.108,0.404,-7.9811,-3.6414,0.4756,-0.340662,0,1698651227,94
-0.2588,-0.5823,-0.0413,0.7502,0.4248,0.5335,1.5359,0.7017,9.5704,0.8261,2.1243,0.2692,0.7043,-8.2994,0.6539,-0.8323,0.5575,3.3062,0.3934,-7.8309,-3.6084,0.5159,-0.486746,0,1698651227,95
-0.2617,-0.5277,-0.0355,0.7126,0.2578,0.5927,1.4884,0.6763,9.6914,0.7793,2.0886,0.2574,0.7741,-8.227,0.6841,-0.7908,0.5328,3.3808,0.3614,-7.6941,-3.6157,0.4999,-0.600537,0,1698651227,96
-0.2645,-0.4677,-0.0306,0.6575,0.0556,0.6404,1.4097,0.5865,9.8664,0.6478,2.0182,0.2064,0.8044,-8.2135,0.6926,-0.7465,0.5255,3.3672,0.3117,-7.5724,-3.6483,0.5104,-0.688949,0,1698651227,96
-0.2674,-0.4313,-0.0261,0.6029,-0.236,0.7013,1.306,0.4895,9.9718,0.509,1.9328,0.1463,0.7956,-8.2477,0.6778,-0.706,0.6247,3.2782,0.2988,-7.4998,-3.7043,0.5221,-0.756942,0,1698651227,97
-0.2705,-0.4192,-0.0221,0.5619,-0.5631,0.7427,1.1862,0.369,10.0123,0.4033,1.8716,0.1372,0.7777,-8.2913,0.6498,-0.6467,0.7401,3.2935,0.2904,-7.4322,-3.7781,0.4547,-0.806525,0,1698651227,98
-0.2732,-0.3921,-0.0189,0.5107,-0.8411,0.7339,1.008,0.3165,9.967,0.3654,1.8539,0.154,0.7535,-8.3695,0.6197,-0.594,0.799,3.5908,0.1893,-7.381,-3.8359,0.4684,-0.833716,0,1698651227,99
-0.2745,-0.3289,-0.0168,0.435,-1.1532,0.7211,0.7605,0.3528,9.9289,0.2878,1.87,0.1312,0.693,-8.4782,0.5597,-0.587,0.7928,3.4298,0.1841,-7.4366,-3.8835,0.522,-0.791512,0,1698651227,99
-0.2746,-0.2425,-0.0149,0.3754,-1.5459,0.6292,0.2703,0.2532,9.783,0.3138,1.7681,0.2419,0.5205,-8.675,0.5737,-0.5124,0.7542,3.4235,0.0535,-7.6364,-3.9198,0.6469,-0.641777,0,1698651227,0
-0.2745,-0.1759,-0.0125,0.3575,-1.7425,0.5904,0.0332,0.2806,9.5209,0.333,1.6824,0.3452,0.4524,-8.7491,0.6151,-0.487,0.839,3.1345,0.1263,-7.751,-3.9085,0.5773,-0.460154,0,1698651227,1
-0.2744,-0.1327,-0.009,0.3596,-1.9147,0.5253,-0.1833,0.2688,9.4306,0.3051,1.6004,0.44,0.3994,-8.8088,0.6422,-0.456,0.863,3.135,0.1693,-7.8446,-3.8988,0.4802,-0.31507,0,1698651227,2
-0.2742,-0.0953,-0.0046,0.3603,-1.9591,0.3886,-0.3949,0.1692,9.381,0.3313,1.5231,0.5297,0.3652,-8.8733,0.6609,-0.4074,0.8536,3.0647,0.2145,-7.9357,-3.8941,0.4179,-0.202135,0,1698651227,2
-0.274,-0.0642,-0.0003,0.3473,-1.8733,0.2024,-0.6104,0.0649,9.3815,0.3474,1.4494,0.6029,0.3488,-8.9315,0.6719,-0.3699,0.7773,2.8626,0.2318,-7.9878,-3.8971,0.3607,-0.115631,0,1698651227,3
-0.2739,-0.0438,0.0033,0.3368,-1.7582,0.004,-0.8008,-0.021,9.2964,0.3652,1.3854,0.6699,0.3497,-8.9756,0.6866,-0.3541,0.7256,2.7372,0.2358,-8.0282,-3.9369,0.3272,-0.049844,0,1698651227,4
-0.2739,-0.0419,0.0067,0.3312,-1.7514,-0.162,-0.9283,-0.0844,9.2289,0.3382,1.3501,0.7458,0.3597,-9.0171,0.6881,-0.3625,0.7503,2.5605,0.2449,-8.0866,-4.0079,0.3348,-0.000249,0,1698651227,5
-0.2738,-0.0438,0.0107,0.3514,-1.7478,-0.2866,-0.9906,-0.0982,9.2156,0.2888,1.3287,0.8415,0.359,-9.0888,0.6765,-0.3991,0.8053,2.3261,0.2716,-8.1569,-4.0904,0.321,0.037301,0,1698651227,5
-0.2738,-0.0295,0.0156,0.3703,-1.6752,-0.3715,-0.9998,-0.0244,9.1047,0.2796,1.3164,0.8885,0.3346,-9.1903,0.6509,-0.468,0.8616,2.0657,0.3042,-8.2502,-4.1357,0.2977,0.066086,0,1698651227,6
-0.2737,-0.0148,0.0205,0.3744,-1.5634,-0.417,-0.9849,0.1235,9.1915,0.2749,1.3187,0.8755,0.308,-9.3102,0.6444,-0.5455,0.861,1.8029,0.3389,-8.3865,-4.1289,0.2876,0.088097,0,1698651227,7
-0.2735,-0.0109,0.0244,0.3694,-1.416,-0.4583,-0.957,0.2373,9.469,0.2357,1.2975,0.8502,0.2975,-9.4245,0.6812,-0.6191,0.8188,1.5911,0.3523,-8.5619,-4.1102,0.2894,0.104656,0,1698651227,8
-0.2731,-0.0122,0.0277,0.3672,-1.3135,-0.4674,-0.9149,0.35,9.773,0.2186,1.2247,0.7972,0.2937,-9.5304,0.7342,-0.6706,0.7562,1.4666,0.3388,-8.7302,-4.1177,0.3037,0.117498,0,1698651227,9
-0.2725,0.0009,0.0309,0.3788,-1.279,-0.4463,-0.8746,0.4964,9.9795,0.2486,1.1205,0.7322,0.2966,-9.6514,0.801,-0.6893,0.7093,1.3861,0.3198,-8.873,-4.1425,0.3305,0.128135,0,1698651227,9
-0.2713,0.0368,0.0337,0.3603,-1.1764,-0.4223,-0.8228,0.6021,9.9709,0.2639,1.0115,0.6681,0.2998,-9.7841,0.8706,-0.6816,0.6797,1.3287,0.2948,-9.017,-4.1467,0.3716,0.137412,0,1698651227,10
-0.2698,0.0808,0.0359,0.3263,-1.0183,-0.3269,-0.7408,0.6496,9.9269,0.2132,0.8961,0.6013,0.2997,-9.9139,0.9435,-0.6703,0.6311,1.302,0.2677,-9.135,-4.1263,0.3793,0.146245,0,1698651227,11
-0.2681,0.1131,0.0373,0.2867,-0.9142,-0.1779,-0.6405,0.6861,9.8796,0.1889,0.7715,0.5502,0.3056,-9.9931,0.9933,-0.6751,0.5661,1.2856,0.2629,-9.2048,-4.0994,0.3478,0.155849,0,1698651227,12
-0.2658,0.1347,0.0379,0.2357,-0.888,-0.0365,-0.566,0.7475,9.737,0.2514,0.6296,0.5464,0.3161,-10.0105,1.0271,-0.6684,0.4909,1.2472,0.3409,-9.2394,-4.0734,0.3182,0.173915,0,1698651227,12
-0.2628,0.1802,0.038,0.1815,-0.9008,0.0912,-0.5379,0.7787,9.6136,0.2918,0.4793,0.5433,0.3337,-9.992,1.0686,-0.6496,0.3907,1.2191,0.4484,-9.2404,-4.0512,0.2996,0.199266,0,1698651227,13
-0.2593,0.2243,0.0383,0.1555,-0.8153,0.198,-0.4948,0.7601,9.5336,0.2857,0.349,0.5163,0.355,-9.9351,1.0714,-0.6118,0.2873,1.2178,0.4705,-9.184,-4.0226,0.2669,0.224598,0,1698651227,14
-0.2559,0.2452,0.0389,0.1653,-0.6756,0.3526,-0.4273,0.7596,9.4087,0.2181,0.2136,0.4535,0.3775,-9.8759,1.0389,-0.557,0.1431,1.1801,0.4562,-9.122,-4.0111,0.2434,0.253328,0,1698651227,15
-0.2529,0.2478,0.0402,0.1604,-0.5126,0.5477,-0.3595,0.7945,9.2825,0.109,0.0557,0.3272,0.412,-9.8313,1.011,-0.5462,-0.0311,1.2479,0.3803,-9.088,-4.0431,0.165,0.286342,0,1698651227,16
-0.2502,0.2364,0.0423,0.1606,-0.3007,0.7358,-0.2804,0.7542,9.3702,0.0098,-0.1224,0.1294,0.4755,-9.7996,1.0064,-0.5761,-0.157,1.1481,0.3563,-9.1143,-4.0835,0.0819,0.324286,0,1698651227,16
-0.2472,0.2632,0.0441,0.1503,-0.0935,0.9535,-0.213,0.6475,9.6826,-0.051,-0.3468,-0.1086,0.5751,-9.7896,1.03,-0.6075,-0.3281,0.8166,0.3905,-9.1748,-4.0854,0.0749,0.367693,0,1698651227,17
-0.2432,0.3351,0.045,0.1225,0.2932,1.1831,-0.1657,0.5711,9.8318,-0.0596,-0.608,-0.3565,0.6848,-9.7547,1.1145,-0.6397,-0.5471,0.5745,0.3531,-9.2338,-4.0273,0.0953,0.410535,0,1698651227,18
-0.2375,0.3993,0.0453,0.1102,0.5459,1.3734,-0.1333,0.5708,9.8431,0.0758,-0.8996,-0.5755,0.7811,-9.7368,1.25,-0.6527,-0.7274,0.3873,0.3266,-9.3127,-3.9405,0.1106,0.405367,0,1698651227,19
-0.2301,0.4538,0.0452,0.0902,0.5402,1.4965,-0.0877,0.5733,9.8987,0.3304,-1.2087,-0.7107,0.8627,-9.7872,1.3738,-0.6938,-0.9254,0.2563,0.3444,-9.4088,-3.8813,0.0742,0.396132,0,1698651227,19
-0.2214,0.5277,0.0449,0.0837,0.5979,1.6092,-0.0224,0.541,10.0025,0.5674,-1.5109,-0.8029,0.9278,-9.8882,1.4654,-0.8003,-1.1014,0.2952,0.2833,-9.581,-3.7501,-0.192,0.423527,0,1698651227,20
-0.2124,0.5834,0.0445,0.0722,0.6462,1.7537,0.0556,0.4771,10.1743,0.8021,-1.8011,-0.8941,0.969,-9.9916,1.5063,-0.9637,-1.2508,0.207,0.2971,-9.8016,-3.7017,-0.5506,0.442152,0,1698651227,21
-0.2027,0.6354,0.0427,0.0027,0.8541,1.8942,0.1605,0.3877,9.9544,1.103,-2.087,-0.9342,1.001,-10.0823,1.4956,-1.123,-1.4359,0.0038,0.4169,-9.9992,-3.7533,-0.6765,0.449991,0,1698651227,22
-0.1933,0.6827,0.0383,-0.1317,1.1503,1.8729,0.2862,0.229,9.6575,1.5369,-2.3244,-0.951,1.0037,-10.2271,1.4202,-1.2847,-1.578,-0.0986,0.4964,-10.1248,-3.8314,-0.712,0.444069,0,1698651227,22
-0.1853,0.6975,0.0315,-0.2842,1.2772,1.7617,0.378,-0.0344,9.8168,1.7831,-2.4952,-0.906,0.9504,-10.3852,1.3197,-1.5083,-1.7029,-0.2259,0.6032,-10.2307,-3.8866,-0.7725,0.423124,0,1698651227,23
-0.1791,0.6875,0.0229,-0.4727,1.3017,1.7129,0.4271,-0.3418,10.2994,1.7813,-2.5997,-0.7339,0.8877,-10.5276,1.275,-1.7235,-1.8322,-0.4193,0.6777,-10.3188,-3.8932,-0.7965,0.396915,0,1698651227,24
-0.1746,0.6213,0.0125,-0.672,1.2499,1.6221,0.4899,-0.583,10.8422,1.7861,-2.6767,-0.5388,0.8134,-10.647,1.2513,-1.862,-1.8901,-0.5636,0.7398,-10.3143,-3.9876,-0.814,0.376013,0,1698651227,25
-0.1719,0.53,0.0003,-0.8286,1.1484,1.4408,0.6026,-0.7768,11.3108,1.894,-2.7603,-0.3217,0.7114,-10.6804,1.2395,-1.9367,-1.8822,-0.3502,0.7191,-10.1846,-4.004,-0.887,0.361092,0,1698651227,26
-0.1706,0.4347,-0.013,-0.954,1.1095,1.2796,0.7115,-0.9022,11.4027,2.0126,-2.8116,-0.067,0.6032,-10.6272,1.2745,-1.9664,-1.7994,0.0099,0.6526,-9.9941,-3.8729,-0.9383,0.352611,0,1698651227,26
-0.1694,0.365,-0.0279,-1.0447,1.0223,1.243,0.7594,-0.6914,11.2357,1.9802,-2.7935,0.1931,0.4834,-10.441,1.3188,-1.9622,-1.735,0.3152,0.5533,-9.7542,-3.6436,-1.0813,0.348874,0,1698651227,27
-0.167,0.3413,-0.0442,-1.1382,0.8565,1.2137,0.7693,-0.4015,11.1089,1.9416,-2.7223,0.4854,0.3571,-10.1203,1.4261,-1.921,-1.7609,0.2506,0.4575,-9.4703,-3.3691,-1.2419,0.347704,0,1698651227,28
-0.1625,0.3689,-0.0628,-1.2383,0.755,1.2258,0.7634,-0.2589,10.8089,1.9146,-2.6389,0.784,0.2411,-9.7183,1.591,-1.8799,-1.9173,-0.0603,0.4426,-9.2281,-2.9559,-1.2928,0.345971,0,1698651227,29
-0.1567,0.4365,-0.0817,-1.3674,0.6881,1.2941,0.752,-0.1167,10.3439,1.8819,-2.6023,1.045,0.1407,-9.2842,1.7557,-1.882,-2.0866,-0.3197,0.4166,-9.0133,-2.5269,-1.3129,0.342173,0,1698651227,29
-0.1502,0.4985,-0.0999,-1.5283,0.862,1.3352,0.7023,-0.0083,10.065,1.7974,-2.6548,1.2562,0.0688,-8.87,1.912,-1.9306,-2.0578,-0.7427,0.3581,-8.8421,-2.2793,-1.2432,0.378176,0,1698651227,30
-0.1428,0.5845,-0.1177,-1.6145,1.228,1.3782,0.6005,0.1173,9.9072,1.6577,-2.7842,1.381,0.0418,-8.5103,2.0256,-2.0197,-1.963,-1.1889,0.3169,-8.7169,-2.1204,-1.2241,0.471358,0,1698651227,31
-0.1352,0.6547,-0.1346,-1.6634,1.2481,1.4678,0.4704,0.2378,9.6996,1.5086,-3.0074,1.3272,0.0405,-8.2673,2.1141,-2.122,-1.857,-1.6335,0.3445,-8.5986,-2.045,-1.2608,0.577685,0,1698651227,32
-0.1275,0.6927,-0.152,-1.7221,0.9416,1.6175,0.3003,0.3277,9.6659,1.4201,-3.306,1.1064,0.0566,-8.1668,2.1781,-2.1868,-1.7014,-2.162,0.4367,-8.5227,-2.0742,-1.2036,0.670246,0,1698651228,33
-0.1196,0.7015,-0.1692,-1.7678,0.6711,1.7279,0.077,0.3575,9.818,1.4178,-3.6181,0.7951,0.0792,-8.1948,2.1866,-2.1775,-1.5158,-2.6518,0.5867,-8.4878,-2.1917,-1.0842,0.743516,0,1698651228,33
-0.1119,0.7015,-0.1866,-1.8399,0.3997,1.8366,-0.1714,0.2972,10.0206,1.419,-3.8921,0.492,0.0875,-8.3333,2.1277,-2.0976,-1.2583,-2.9376,0.6837,-8.503,-2.3701,-0.9047,0.800681,0,1698651228,34
-0.104,0.7369,-0.2042,-1.8536,0.0883,1.9849,-0.4249,0.1493,10.2773,1.3729,-4.1159,0.2864,0.0879,-8.5554,2.005,-1.9641,-1.1153,-3.1008,0.6959,-8.5297,-2.5929,-0.6744,0.845111,0,1698651228,35
-0.096,0.788,-0.2219,-1.819,-0.1826,2.0976,-0.6798,-0.1059,10.5684,1.3235,-4.2753,0.1761,0.0806,-8.8272,1.8378,-1.8076,-1.1023,-3.2251,0.6619,-8.5713,-2.9234,-0.4661,0.879592,0,1698651228,36
-0.0884,0.8318,-0.2385,-1.8144,-0.4074,2.1689,-0.9356,-0.3466,10.673,1.303,-4.342,0.1543,0.0655,-9.1269,1.6831,-1.6833,-1.1237,-3.2883,0.5869,-8.6974,-3.2284,-0.3251,0.906321,0,1698651228,36
-0.0812,0.8279,-0.254,-1.7899,-0.5173,2.18,-1.1668,-0.6126,10.6117,1.3111,-4.2719,0.2141,0.0572,-9.4088,1.5484,-1.6458,-1.4003,-3.4278,0.5603,-8.8547,-3.4311,-0.2133,0.926281,0,1698651228,37
-0.0744,0.7982,-0.2692,-1.718,-0.5421,2.1392,-1.3727,-0.9011,10.47,1.3506,-4.0735,0.3322,0.0687,-9.6237,1.4482,-1.6483,-1.5426,-3.6588,0.6367,-9.0202,-3.5349,-0.0855,0.938592,0,1698651228,38
-0.0679,0.7685,-0.2832,-1.6365,-0.5359,2.0589,-1.5796,-1.1842,10.3118,1.3433,-3.8086,0.5116,0.0895,-9.7458,1.3922,-1.6577,-1.4078,-4.1127,0.9781,-9.1364,-3.5414,0.091,0.945025,0,1698651228,39
-0.0618,0.738,-0.2961,-1.5726,-0.4475,1.9148,-1.7854,-1.4602,10.0789,1.2935,-3.4418,0.7397,0.0946,-9.7425,1.3222,-1.7171,-1.1948,-5.4145,1.4674,-9.204,-3.4212,0.0293,0.952312,0,1698651228,40
-0.0562,0.715,-0.3081,-1.5129,-0.2689,1.7014,-1.9751,-1.6591,9.7833,1.28,-2.9395,0.9295,0.0602,-9.6285,1.2409,-1.795,-1.5254,-5.6476,1.4589,-8.9149,-3.0279,-0.3701,0.956687,0,1698651228,40
-0.0511,0.6742,-0.3189,-1.4195,-0.0382,1.3967,-2.1616,-1.8099,9.5368,1.2358,-2.4276,1.1,-0.0381,-9.4801,1.2366,-1.7826,-1.7438,-4.951,1.4386,-8.6286,-2.782,-0.5374,0.858684,0,1698651228,41
-0.0462,0.6045,-0.3282,-1.2763,0.1411,1.0698,-2.3414,-1.9933,9.3489,1.0855,-2.0529,1.2768,-0.2167,-9.3333,1.2714,-1.7208,-1.4064,-4.9306,1.5908,-8.6909,-2.815,-0.2947,0.689805,0,1698651228,42
-0.0414,0.5379,-0.3358,-1.1302,0.2649,0.7383,-2.4913,-2.0948,9.1476,0.9396,-1.8276,1.4047,-0.4373,-9.1861,1.2907,-1.6662,-1.0284,-4.5176,1.4124,-8.5503,-2.9531,-0.005,0.521954,0,1698651228,43
-0.0374,0.4903,-0.3421,-0.9931,0.4055,0.3905,-2.5873,-2.0563,9.2635,0.8038,-1.6559,1.5322,-0.6077,-9.0395,1.3519,-1.5924,-0.8175,-4.0383,1.2389,-8.3374,-3.0439,0.1362,0.331028,0,1698651228,43
-0.0342,0.4515,-0.3478,-0.8746,0.5734,0.0095,-2.638,-2.139,9.4894,0.7069,-1.4595,1.6295,-0.6983,-8.855,1.4123,-1.5309,-0.9604,-3.7095,1.0624,-8.2658,-2.973,0.3218,0.107656,0,1698651228,44
-0.0309,0.4201,-0.3525,-0.7812,0.7243,-0.3494,-2.6774,-2.2457,9.4697,0.5675,-1.2916,1.5747,-0.7721,-8.6871,1.4183,-1.4711,-1.0536,-3.4771,0.8563,-8.1589,-2.9008,0.564,-0.13019,0,1698651228,45
-0.0271,0.401,-0.3565,-0.6966,0.7401,-0.6129,-2.7156,-2.1529,9.3959,0.3892,-1.1911,1.4392,-0.861,-8.5714,1.4134,-1.3933,-1.1404,-3.2983,0.4814,-7.9599,-2.8541,0.6882,-0.324058,0,1698651228,46
-0.023,0.3727,-0.3605,-0.624,0.4686,-0.936,-2.7454,-1.9874,9.2889,0.3752,-1.0772,1.3732,-0.936,-8.4802,1.4459,-1.283,-1.1465,-3.1466,0.157,-7.8048,-2.8381,0.7666,-0.474976,0,1698651228,47
-0.0193,0.3489,-0.3643,-0.5392,0.2339,-1.4895,-2.7156,-1.843,9.2397,0.3743,-0.9018,1.3654,-0.9772,-8.408,1.4754,-1.2117,-1.1836,-2.7144,-0.0089,-7.6349,-2.7174,0.8127,-0.592198,0,1698651228,47
-0.0162,0.338,-0.367,-0.4456,0.0745,-1.8623,-2.6465,-1.6921,9.2464,0.2896,-0.7519,1.321,-0.9896,-8.3212,1.5253,-1.2073,-0.9994,-2.5014,-0.0798,-7.5806,-2.6363,0.8114,-0.683248,0,1698651228,48
-0.0125,0.3698,-0.3682,-0.3522,-0.1523,-1.9269,-2.5357,-1.5792,9.076,0.2966,-0.7173,1.2192,-0.9813,-8.2274,1.6122,-1.232,-0.7472,-2.693,-0.0113,-7.7457,-2.6401,0.9387,-0.75397,0,1698651228,49
-0.0072,0.4473,-0.3682,-0.2712,-0.2885,-1.9498,-2.361,-1.4444,8.8958,0.2541,-0.8097,1.0549,-1.0039,-8.132,1.6658,-1.2804,-0.611,-2.4404,-0.0646,-7.8233,-2.5417,1.0613,-0.808901,0,1698651228,50
-0.001,0.5038,-0.3681,-0.208,-0.3567,-1.9284,-2.135,-1.3486,8.9696,0.1527,-0.902,0.9997,-1.0376,-8.0871,1.77,-1.2941,-0.3391,-1.9306,-0.1402,-7.9098,-2.4033,1.1149,-0.851568,0,1698651228,50
0.0055,0.5509,-0.3679,-0.1477,-0.4558,-1.893,-1.8793,-1.3268,9.0882,0.1082,-0.9148,1.0761,-1.0144,-8.0968,1.9348,-1.2807,-0.0852,-1.2066,-0.2448,-8.0511,-2.2971,1.1543,-0.871553,0,1698651228,51
0.0125,0.6052,-0.3676,-0.1008,-0.6631,-1.8766,-1.6203,-1.2564,9.0921,0.111,-0.9171,1.0997,-0.9614,-8.1003,2.0599,-1.2728,0.0958,-0.386,-0.3704,-8.191,-2.2136,1.2,-0.837823,0,1698651228,52
0.0197,0.6156,-0.3673,-0.0532,-0.7866,-1.8673,-1.3457,-1.2084,9.1571,0.072,-0.9292,1.089,-0.9117,-8.1103,2.1801,-1.2508,0.2577,0.1125,-0.3981,-8.3101,-2.1177,1.2731,-0.739899,0,1698651228,53
0.0266,0.6372,-0.3667,-0.008,-0.8996,-1.837,-1.043,-1.2548,9.1146,0.054,-0.9726,1.097,-0.8595,-8.1584,2.2988,-1.2006,0.4576,0.2116,-0.331,-8.335,-2.043,1.3409,-0.631895,0,1698651228,53
0.0332,0.6835,-0.3649,0.0543,-1.1186,-1.8289,-0.738,-1.32,9.0169,0.0839,-1.0251,1.1278,-0.7857,-8.2196,2.3661,-1.1645,0.5855,0.2162,-0.2286,-8.3634,-1.9745,1.4809,-0.513745,0,1698651228,54
0.039,0.6665,-0.3612,0.1437,-1.356,-1.8242,-0.4057,-1.4454,8.9774,0.0668,-1.0556,1.1365,-0.6934,-8.2681,2.3832,-1.1811,0.6918,-0.2004,0.0146,-8.4434,-1.9977,1.5918,-0.385317,0,1698651228,55
0.0441,0.6236,-0.3557,0.2468,-1.5984,-1.7874,-0.0555,-1.5519,8.7559,0.1301,-1.0648,1.0988,-0.5936,-8.3216,2.3547,-1.2291,0.9038,-1.1145,0.3611,-8.4944,-2.1409,1.5951,-0.28756,0,1698651228,56
0.0488,0.5953,-0.3486,0.3668,-1.8028,-1.717,0.248,-1.4601,8.5603,0.1815,-1.0328,1.0262,-0.4914,-8.3867,2.2994,-1.2885,1.0779,-1.7205,0.5612,-8.519,-2.2042,1.6214,-0.220892,0,1698651228,57
0.0534,0.5641,-0.3397,0.4848,-1.9088,-1.6479,0.5247,-1.3191,8.5978,0.227,-0.9235,0.9493,-0.3992,-8.453,2.2349,-1.3846,1.1142,-2.0771,0.6843,-8.5943,-2.216,1.7472,-0.178404,0,1698651228,57
0.058,0.5355,-0.33,0.6019,-1.8352,-1.503,0.7822,-1.2745,8.727,0.3599,-0.7339,0.8895,-0.3268,-8.5443,2.1596,-1.4831,1.3052,-2.118,0.739,-8.6233,-2.2495,1.7422,-0.147145,0,1698651228,58
0.0623,0.512,-0.321,0.6533,-1.6399,-1.3385,0.972,-1.1586,8.8064,0.5305,-0.5064,0.8431,-0.2756,-8.6789,2.0883,-1.5389,1.3726,-1.7407,0.646,-8.6333,-2.2439,1.6371,-0.122371,0,1698651228,59
0.0671,0.4878,-0.3128,0.6324,-1.4218,-1.192,1.093,-1.0017,8.7198,0.7753,-0.2659,0.8156,-0.2648,-8.8112,2.0193,-1.6011,0.9887,-1.3301,0.4825,-8.7036,-2.2102,1.5931,-0.096124,0,1698651228,60
0.0722,0.4693,-0.3061,0.5986,-1.1117,-1.0014,1.1716,-0.8668,8.6777,1.002,-0.0219,0.8198,-0.2863,-8.9182,2.0087,-1.66,0.4084,-0.1478,0.1229,-8.5418,-2.2105,1.6057,-0.05706,0,1698651228,60
0.0769,0.4595,-0.302,0.5211,-0.7354,-0.8074,1.202,-0.6917,8.8269,1.0811,0.1778,0.8631,-0.3132,-9.008,2.0895,-1.7248,0.0053,0.6903,-0.0788,-8.5157,-2.2436,1.5204,-0.038893,0,1698651228,61
0.0808,0.4383,-0.3002,0.4134,-0.4917,-0.5426,1.1881,-0.4777,8.9771,1.0236,0.2298,0.803,-0.3741,-9.1126,2.2105,-1.7932,-0.2242,0.8445,-0.1367,-8.8071,-2.1849,1.3528,-0.100716,0,1698651228,62
0.0844,0.4324,-0.3,0.3145,-0.2862,-0.2942,1.1611,-0.3079,9.2054,0.9321,0.104,0.6848,-0.4539,-9.2362,2.362,-1.8157,-0.5107,1.0725,-0.2379,-9.0957,-2.0729,1.2942,-0.221543,0,1698651228,63
0.0882,0.4443,-0.3003,0.2328,-0.0388,-0.0928,1.147,-0.2894,9.42,0.8058,-0.0644,0.5887,-0.5226,-9.3628,2.5224,-1.8136,-0.7025,0.8252,-0.1648,-9.406,-2.0202,1.2744,-0.328573,0,1698651228,64
0.0918,0.4111,-0.3007,0.1726,0.1175,0.1616,1.1454,-0.3536,9.5118,0.562,-0.1765,0.4816,-0.5751,-9.5164,2.6526,-1.7807,-0.8234,0.5684,-0.1148,-9.6192,-1.9996,1.2868,-0.375984,0,1698651228,64
0.0947,0.3667,-0.3016,0.1074,0.2526,0.3414,1.1723,-0.4995,9.5424,0.2627,-0.2465,0.384,-0.5844,-9.6883,2.7332,-1.7285,-0.8798,0.3322,-0.1254,-9.7452,-2.0341,1.321,-0.371585,0,1698651228,65
0.097,0.3561,-0.3036,0.0279,0.4939,0.3464,1.2255,-0.7399,9.6029,0.0004,-0.2907,0.1905,-0.561,-9.8521,2.7522,-1.6758,-0.8495,0.0593,-0.1865,-9.8118,-2.1082,1.3824,-0.363963,0,1698651228,66
0.0996,0.3461,-0.3063,-0.0408,0.6327,0.2658,1.2516,-1.0486,9.5346,-0.2999,-0.3224,-0.1148,-0.5308,-9.971,2.7333,-1.5901,-0.7118,-0.1467,-0.3268,-9.8224,-2.2023,1.5169,-0.372788,0,1698651228,67
0.1033,0.3699,-0.3091,-0.0829,0.6971,0.1462,1.2547,-1.3723,9.2937,-0.6125,-0.3232,-0.4772,-0.4792,-10.0172,2.6654,-1.4981,-0.4378,-0.3944,-0.4912,-9.8036,-2.3364,1.6769,-0.369854,0,1698651228,67
0.1082,0.399,-0.3113,-0.0929,0.8937,-0.0933,1.287,-1.7376,9.0614,-0.8045,-0.2343,-0.8755,-0.4,-10.0757,2.5135,-1.5014,-0.0494,-0.7599,-0.6522,-9.7957,-2.5309,1.8421,-0.345266,0,1698651228,68
0.1128,0.3782,-0.312,-0.0637,1.1776,-0.448,1.3607,-2.1397,9.082,-0.8876,-0.04,-1.334,-0.3078,-10.2308,2.3009,-1.6085,0.4594,-1.2244,-0.8453,-9.7909,-2.8001,1.9905,-0.307309,0,1698651228,69
0.1161,0.3427,-0.3114,-0.0275,1.4552,-0.8906,1.4349,-2.3823,9.4374,-0.9934,0.2558,-1.8,-0.2114,-10.4116,2.0559,-1.7016,1.0667,-1.6687,-1.1138,-9.71,-3.0798,2.086,-0.26131,0,1698651228,70
0.1183,0.2942,-0.3104,-0.0151,1.6104,-1.427,1.4474,-2.5089,9.8091,-1.0744,0.7284,-2.2055,-0.1366,-10.5441,1.8073,-1.6908,1.7012,-2.0386,-1.4178,-9.5885,-3.3469,2.1535,-0.207453,0,1698651228,71
0.1196,0.2629,-0.3092,0.0275,1.7948,-1.9774,1.3668,-2.5336,10.2288,-1.0126,1.3307,-2.557,-0.116,-10.6461,1.5792,-1.5966,2.2853,-2.3855,-1.688,-9.5068,-3.5515,2.2126,-0.146973,0,1698651228,71
0.1205,0.2411,-0.306,0.1286,2.0462,-2.6188,1.2275,-2.2573,9.8955,-0.6048,1.8062,-2.8267,-0.1477,-10.7604,1.4103,-1.5226,2.7338,-2.7291,-1.932,-9.5042,-3.7027,2.2421,-0.09794,0,1698651228,72
0.121,0.1983,-0.3,0.2625,2.1563,-3.2235,1.1134,-1.7862,9.4452,-0.0616,2.0553,-3.0984,-0.203,-10.9331,1.3085,-1.5881,2.9526,-2.8246,-2.2058,-9.6281,-3.9,2.3004,-0.141456,0,1698651228,73
0.1207,0.1435,-0.2912,0.4289,2.0118,-3.4009,1.0332,-1.3585,9.6,0.3332,2.1679,-3.4031,-0.2629,-11.1683,1.2548,-1.7526,2.9394,-2.8657,-2.4518,-9.9291,-4.0576,2.3331,-0.287693,0,1698651228,74
0.1194,0.0695,-0.2804,0.5774,2.0264,-3.1808,1.0033,-0.9924,9.7422,0.6346,2.2826,-3.6739,-0.2951,-11.4141,1.2664,-1.9025,2.8831,-3.0253,-2.5755,-10.3187,-4.0637,2.234,-0.339774,0,1698651228,74
0.1156,-0.0696,-0.2698,0.6728,2.5602,-2.9834,0.9971,-0.6364,10.1055,1.1878,2.4697,-3.8868,-0.2936,-11.5787,1.2919,-1.9923,2.8419,-3.0198,-2.6205,-10.6288,-4.0222,2.0131,-0.266921,0,1698651228,75
0.109,-0.2511,-0.2606,0.7267,3.0524,-2.7857,0.9063,-0.1693,10.7097,1.7963,2.6534,-3.9661,-0.2839,-11.6064,1.2871,-2.0267,2.752,-2.8068,-2.6418,-10.8036,-3.9723,1.7617,-0.190336,0,1698651228,76
0.1001,-0.4391,-0.2531,0.7343,3.2668,-2.4252,0.7198,0.3173,11.2023,2.0765,2.7091,-3.9612,-0.3122,-11.5175,1.2935,-2.0617,2.5646,-2.5092,-2.6208,-10.8066,-3.8727,1.5817,-0.124878,0,1698651228,77
0.0886,-0.6514,-0.2468,0.7126,3.2544,-2.0172,0.4889,0.6104,11.3797,2.1827,2.5999,-3.9105,-0.3896,-11.301,1.318,-2.0696,2.2306,-2.1247,-2.5542,-10.6571,-3.7509,1.429,-0.068391,0,1698651228,78
0.0744,-0.8778,-0.2411,0.6801,3.0138,-1.5547,0.2959,0.7,11.5444,2.0714,2.4,-3.7868,-0.4735,-10.9625,1.3146,-2.0181,1.8639,-1.5976,-2.4471,-10.384,-3.6119,1.269,-0.019036,0,1698651228,78
0.0579,-1.1128,-0.2349,0.6675,2.8823,-1.1716,0.1895,0.5477,11.4254,2.0322,2.1825,-3.6328,-0.5327,-10.5141,1.2142,-1.9307,1.568,-0.965,-2.3137,-9.9718,-3.4861,1.0944,0.023127,0,1698651228,79
0.0393,-1.3296,-0.2279,0.6781,2.8569,-0.9464,0.1401,0.3281,10.8438,2.1283,2.0042,-3.4765,-0.5481,-9.9852,1.0038,-1.8407,1.1932,-0.3125,-2.1768,-9.4592,-3.4084,0.934,0.058127,0,1698651228,80
0.0196,-1.4758,-0.2204,0.7176,2.6556,-0.7587,0.1119,0.2164,10.2312,2.1376,1.8862,-3.3491,-0.543,-9.4425,0.7429,-1.7684,0.7155,0.3323,-2.1062,-8.8953,-3.4231,0.8126,0.088092,0,1698651228,81
0.0004,-1.5592,-0.2123,0.7414,2.4123,-0.6044,0.1096,0.055,9.9511,2.003,1.8346,-3.2545,-0.5108,-8.9299,0.433,-1.6961,0.3274,1.042,-2.1341,-8.3247,-3.5444,0.6354,0.054669,0,1698651228,81
-0.0185,-1.6046,-0.2034,0.7626,2.2404,-0.5272,0.1249,-0.2406,9.7941,1.8249,1.9291,-3.0403,-0.4177,-8.5181,0.1127,-1.6494,0.1317,1.6844,-2.2026,-7.8457,-3.7453,0.4241,-0.060034,0,1698651228,82
-0.0377,-1.6475,-0.1939,0.8086,2.0285,-0.4979,0.1163,-0.5295,9.6276,1.6537,2.1883,-2.8305,-0.3036,-8.2376,-0.1556,-1.6548,0.1952,2.0811,-2.2584,-7.4886,-3.9903,0.2527,-0.174341,0,1698651228,83
-0.0557,-1.6544,-0.1845,0.8265,1.7795,-0.5348,0.0661,-0.7248,9.6364,1.428,2.4519,-2.873,-0.2355,-8.0744,-0.3618,-1.6603,0.4951,2.2264,-2.3069,-7.2511,-4.2584,0.1091,-0.262064,0,1698651228,84
-0.0724,-1.5932,-0.1753,0.8379,1.5248,-0.6367,-0.0035,-0.9246,9.6903,1.2764,2.5628,-3.0772,-0.2166,-8.0218,-0.4903,-1.5932,0.89,2.157,-2.3598,-7.158,-4.4816,0.046,-0.324111,0,1698651228,84
-0.0882,-1.5224,-0.166,0.8433,1.3201,-0.7619,-0.0524,-1.0378,9.7941,1.1777,2.6047,-3.2759,-0.2114,-8.0808,-0.524,-1.4521,1.3253,1.8022,-2.36,-7.1961,-4.5748,0.0614,-0.315967,0,1698651228,85
-0.1048,-1.5423,-0.1561,0.8444,1.1432,-0.9094,-0.0641,-1.0405,9.9227,1.1681,2.7122,-3.362,-0.1979,-8.2424,-0.4395,-1.2864,1.7615,1.3136,-2.3193,-7.3649,-4.5659,0.1877,-0.244357,0,1698651228,86
-0.1227,-1.6011,-0.1457,0.8856,0.9607,-1.0197,-0.0049,-0.968,10.1826,1.2117,2.8528,-3.2935,-0.1704,-8.458,-0.2331,-1.1371,2.0517,1.0022,-2.2971,-7.6318,-4.4679,0.4088,-0.163235,0,1698651228,87
-0.141,-1.6566,-0.1356,0.9402,0.7482,-1.0867,0.1143,-0.8083,10.4582,1.2218,2.9851,-3.028,-0.1499,-8.6925,0.05,-0.9963,2.1808,1.0161,-2.2423,-7.9744,-4.3009,0.6257,-0.097035,0,1698651228,88
-0.1583,-1.7231,-0.1256,0.9698,0.4825,-1.1327,0.2402,-0.5543,10.5443,1.2379,3.0418,-2.6182,-0.1399,-8.9167,0.3559,-0.8503,2.2334,1.0524,-2.1247,-8.3038,-4.0926,0.7677,-0.018348,0,1698651228,88
-0.1752,-1.7356,-0.1161,0.9609,0.2728,-1.1029,0.3831,-0.2721,10.4746,1.2504,2.9597,-2.2061,-0.162,-9.1047,0.6456,-0.7289,2.1396,0.9553,-1.9661,-8.5158,-3.861,0.7968,0.094883,0,1698651228,89
-0.1916,-1.7321,-0.1071,0.9149,0.1252,-1.0277,0.5478,0.0287,10.2398,1.3585,2.7757,-1.805,-0.2141,-9.1938,0.9019,-0.6265,2.0071,0.9643,-1.7637,-8.7113,-3.6408,0.8036,0.225702,0,1698651228,90
-0.2071,-1.6844,-0.0982,0.8698,-0.0277,-0.8883,0.7447,0.3104,9.9783,1.4291,2.5315,-1.3768,-0.2546,-9.1769,1.1096,-0.5596,1.8411,1.0718,-1.5186,-8.8494,-3.4756,0.7979,0.357289,0,1698651228,91
-0.2217,-1.6008,-0.0894,0.8459,-0.1329,-0.573,0.9684,0.5364,9.7038,1.3398,2.3077,-0.9257,-0.2587,-9.0895,1.2045,-0.5619,1.5281,1.2005,-1.2422,-8.8044,-3.3698,0.7432,0.468742,0,1698651228,91
-0.2352,-1.5212,-0.0805,0.8822,-0.1285,-0.2003,1.178,0.7983,9.4198,1.2638,2.1577,-0.4961,-0.2381,-8.9377,1.212,-0.5858,1.2261,1.43,-1.0071,-8.6762,-3.3044,0.6965,0.554645,0,1698651228,92
-0.2474,-1.4245,-0.0718,0.9312,-0.0834,0.1267,1.3629,0.9563,9.2483,1.2551,2.0122,-0.1956,-0.2144,-8.7714,1.1879,-0.567,0.8928,1.7872,-0.8279,-8.5169,-3.278,0.6885,0.613127,0,1698651228,93
-0.2577,-1.3205,-0.0633,0.953,-0.1872,0.5205,1.5117,1.0611,9.26,1.1034,1.8234,-0.0278,-0.1883,-8.6032,1.1307,-0.507,0.4148,2.195,-0.7159,-8.3313,-3.2371,0.7454,0.604693,0,1698651228,94
-0.267,-1.2116,-0.055,0.9342,-0.1852,0.8954,1.6502,1.073,9.3774,0.9775,1.6435,0.0974,-0.1476,-8.4432,1.0694,-0.4194,-0.201,2.7146,-0.6477,-8.1266,-3.1899,0.8086,0.493648,0,1698651228,95
-0.2752,-1.1014,-0.0469,0.8953,-0.1069,1.2189,1.7749,1.054,9.3873,0.9664,1.5489,0.2457,-0.0691,-8.3087,1.0355,-0.3303,-0.8114,2.7287,-0.4797,-7.9578,-3.2323,0.8606,0.477927,0,1698651228,95
-0.2821,-0.9951,-0.0386,0.8616,-0.1365,1.5384,1.8691,1.0854,9.3599,0.9104,1.5393,0.3797,0.0481,-8.1957,1.0278,-0.2772,-1.2625,2.9417,-0.4685,-7.8085,-3.3,0.9766,0.593898,0,1698651228,96
-0.2878,-0.8768,-0.0307,0.8227,-0.1185,1.819,1.9347,1.0951,9.421,0.8525,1.5566,0.4864,0.1834,-8.1133,1.0416,-0.2479,-1.5847,3.3499,-0.4632,-7.7091,-3.3159,1.0822,0.684104,0,1698651228,97
-0.292,-0.7548,-0.0238,0.7785,-0.1361,2.0837,1.949,1.0935,9.3378,0.8204,1.5343,0.5726,0.2894,-8.0792,1.0411,-0.2235,-1.7959,3.0765,-0.2393,-7.6626,-3.3182,1.0231,0.754141,0,1698651228,98
-0.2947,-0.636,-0.0178,0.7194,-0.212,2.338,1.9004,1.0945,9.3028,0.7184,1.4206,0.5884,0.3402,-8.0768,1.0204,-0.2076,-1.8729,3.1982,-0.2425,-7.5709,-3.3175,0.8717,0.808523,0,1698651228,98
-0.296,-0.5177,-0.013,0.6646,-0.3229,2.5388,1.7766,1.0479,9.4303,0.5428,1.2369,0.5667,0.3541,-8.095,1.0164,-0.1866,-1.9259,3.4895,-0.3243,-7.5347,-3.3608,0.7751,0.850976,0,1698651228,99
-0.2963,-0.417,-0.0083,0.6363,-0.461,2.6702,1.6072,0.8808,9.5179,0.4082,1.0558,0.5276,0.3453,-8.1347,0.9847,-0.1677,-1.974,3.4517,-0.2626,-7.5285,-3.4351,0.694,0.884086,0,1698651228,0
-0.2963,-0.3317,-0.0037,0.5907,-0.6041,2.7841,1.4108,0.6622,9.4972,0.247,0.9007,0.4938,0.3137,-8.2255,0.9159,-0.1425,-1.9865,3.47,-0.2215,-7.4831,-3.5305,0.6366,0.909825,0,1698651228,1
-0.2962,-0.2621,-0.0002,0.4945,-0.7834,2.8325,1.1381,0.482,9.5672,0.1052,0.7675,0.4625,0.2619,-8.3647,0.8531,-0.1067,-1.9639,3.5984,-0.233,-7.4956,-3.6519,0.6289,0.92985,0,1698651228,2
-0.296,-0.2107,0.0021,0.4029,-1.0667,2.7645,0.7712,0.3581,9.72,0.0464,0.6392,0.4228,0.1961,-8.4899,0.7763,-0.0639,-1.8492,3.5899,-0.2155,-7.5553,-3.7895,0.6392,0.94542,0,1698651228,2
-0.2959,-0.1627,0.0038,0.3542,-1.372,2.6008,0.3652,0.1742,9.7913,-0.0388,0.5524,0.4355,0.1374,-8.5877,0.7009,-0.0218,-1.6774,3.372,-0.1006,-7.5699,-3.9394,0.6441,0.957425,0,1698651228,3
-0.2959,-0.115,0.0052,0.3098,-1.5656,2.3706,-0.0277,-0.0467,9.6756,-0.1069,0.5071,0.4819,0.0883,-8.6604,0.6287,-0.0263,-1.481,3.2086,0.0084,-7.573,-4.0986,0.651,0.966068,0,1698651228,4
-0.2958,-0.0806,0.0065,0.2711,-1.7799,2.1194,-0.4138,-0.1782,9.4679,-0.1458,0.449,0.5146,0.0306,-8.7351,0.552,-0.0365,-1.2449,3.0111,0.1091,-7.6181,-4.2554,0.6625,0.965032,0,1698651228,5
-0.2958,-0.0469,0.0086,0.2798,-1.96,1.8313,-0.7717,-0.3191,9.2421,-0.1499,0.3654,0.5085,-0.0483,-8.8207,0.4965,-0.0238,-0.9728,2.7247,0.23,-7.6965,-4.352,0.6584,0.84354,0,1698651228,5
-0.2957,-0.021,0.0121,0.3136,-2.0232,1.5292,-1.0658,-0.4633,8.9251,-0.1429,0.2792,0.4901,-0.1352,-8.8935,0.4549,-0.0134,-0.7223,2.509,0.3077,-7.768,-4.3889,0.663,0.603142,0,1698651228,6
-0.2956,-0.0103,0.0168,0.3771,-1.9462,1.2298,-1.2645,-0.5427,8.7161,-0.1557,0.3077,0.5729,-0.1796,-8.9568,0.4261,-0.0174,-0.5158,2.2367,0.3945,-7.8428,-4.413,0.7004,0.419947,0,1698651228,7
-0.2951,0.0126,0.022,0.4444,-1.7048,0.9358,-1.3736,-0.5947,8.7162,-0.1637,0.4696,0.7242,-0.1647,-9.0179,0.4225,-0.0079,-0.3529,1.9493,0.4866,-7.9298,-4.4325,0.7704,0.338636,0,1698651228,8
-0.2937,0.0636,0.0274,0.4687,-1.4705,0.6751,-1.4507,-0.629,8.786,-0.1943,0.6465,0.7863,-0.1446,-9.0783,0.453,0.0094,-0.2221,1.7747,0.5437,-8.0182,-4.4313,0.8504,0.299719,0,1698651228,8
-0.2914,0.1104,0.0332,0.4811,-1.228,0.4454,-1.451,-0.6492,8.7713,-0.1857,0.7532,0.7962,-0.1324,-9.1516,0.5094,0.0319,-0.1051,1.6774,0.5667,-8.1211,-4.3917,0.9153,0.268388,0,1698651228,9
-0.2883,0.1619,0.0392,0.5158,-0.9348,0.2379,-1.3659,-0.5983,8.7129,-0.09,0.7892,0.7996,-0.0999,-9.2393,0.5719,0.0654,-0.0211,1.6181,0.5718,-8.2371,-4.343,0.9819,0.243589,0,1698651229,10
-0.285,0.2131,0.0448,0.5466,-0.725,0.0717,-1.2666,-0.4506,8.8187,-0.0223,0.8181,0.7937,-0.0432,-9.3122,0.649,0.0928,0.0493,1.5685,0.5766,-8.3354,-4.3132,1.0535,0.223696,0,1698651229,11
-0.2811,0.2464,0.0501,0.568,-0.6037,-0.0421,-1.1725,-0.2818,9.0624,-0.0313,0.8677,0.7849,0.0341,-9.3809,0.7346,0.1071,0.1167,1.5088,0.588,-8.43,-4.2967,1.1128,0.211749,0,1698651229,11
-0.2765,0.2873,0.0558,0.5669,-0.5087,0.0962,-1.0857,-0.1366,9.3158,-0.0478,0.9242,0.7662,0.13,-9.4594,0.8115,0.0888,0.1691,1.4385,0.6011,-8.5179,-4.29,1.1161,0.212495,0,1698651229,12
-0.2717,0.3375,0.0611,0.535,-0.4383,0.2215,-0.997,0.0313,9.5915,-0.0489,0.974,0.7507,0.2394,-9.5225,0.8912,0.0524,0.2218,1.3651,0.6105,-8.5851,-4.2846,1.0388,0.200951,0,1698651229,13
-0.2673,0.3642,0.0654,0.4976,-0.451,0.1314,-0.9145,0.2095,9.8652,-0.0418,0.9837,0.7183,0.344,-9.5573,0.9625,0.0324,0.2856,1.2741,0.6322,-8.617,-4.2876,0.9664,0.176777,0,1698651229,14
-0.2639,0.349,0.0692,0.4786,-0.5256,0.0912,-0.8461,0.3573,9.9899,-0.0036,0.941,0.6931,0.4354,-9.5929,1.0142,0.0102,0.2995,1.2272,0.6423,-8.6116,-4.2752,0.9559,0.178943,0,1698651229,14
-0.2611,0.3109,0.0729,0.4654,-0.6338,0.1307,-0.7623,0.4636,10.006,0.0079,0.901,0.6829,0.5184,-9.628,1.0538,-0.0271,0.2659,1.2471,0.6552,-8.6552,-4.2592,1.0074,0.197604,0,1698651229,15
-0.2596,0.2467,0.0757,0.4143,-0.7417,0.2134,-0.67,0.4958,10.1492,-0.0022,0.881,0.669,0.5905,-9.6543,1.0631,-0.0419,0.2083,1.3545,0.667,-8.7089,-4.2641,1.0871,0.209194,0,1698651229,16
-0.2593,0.1873,0.0774,0.3684,-0.8247,0.2717,-0.6238,0.5252,10.2586,0.0079,0.8374,0.6539,0.6414,-9.6835,1.0485,-0.0328,0.0579,1.3664,0.7025,-8.723,-4.2295,1.0759,0.212156,0,1698651229,17
-0.2594,0.1449,0.0785,0.3154,-0.8883,0.3876,-0.5965,0.5841,10.1458,-0.0343,0.754,0.6235,0.6673,-9.7256,1.0299,-0.0006,-0.1587,1.7114,0.6168,-8.6955,-4.205,1.0225,0.21116,0,1698651229,17
-0.2596,0.1122,0.0796,0.2607,-0.8814,0.5723,-0.5369,0.6533,10.0162,-0.1408,0.6424,0.5607,0.6729,-9.7977,1.0168,0.0466,-0.2987,2.0347,0.5383,-8.7693,-4.2394,0.9826,0.21279,0,1698651229,18
-0.2597,0.0857,0.0809,0.2305,-0.8377,0.801,-0.4659,0.7501,9.8778,-0.2534,0.5149,0.4863,0.6798,-9.8994,1.048,0.0843,-0.4263,2.0779,0.5472,-8.9635,-4.2629,0.9126,0.217685,0,1698651229,19
-0.2598,0.0667,0.0824,0.2008,-0.7246,1.0894,-0.3792,0.8673,9.8174,-0.33,0.3501,0.3825,0.7244,-10.0313,1.1399,0.0946,-0.481,2.4004,0.3402,-9.1629,-4.2066,0.5798,0.225318,0,1698651229,20
-0.2597,0.0534,0.0842,0.1975,-0.5847,1.4063,-0.2659,0.9519,9.8846,-0.3766,0.1302,0.2448,0.828,-10.1906,1.2864,0.0753,-0.5798,2.2358,0.3047,-9.4451,-4.1698,0.3731,0.23495,0,1698651229,20
-0.2595,0.0509,0.0865,0.2121,-0.4522,1.7146,-0.0773,0.9692,10.0624,-0.4206,-0.1634,0.1063,0.9665,-10.32,1.4753,0.0508,-0.5756,2.5665,0.2379,-9.4713,-4.184,0.3959,0.244019,0,1698651229,21
-0.2583,0.0666,0.0891,0.2087,-0.4225,1.978,0.1109,0.9394,10.3465,-0.4266,-0.486,-0.0038,1.0996,-10.3877,1.6511,0.0058,-0.6592,3.0168,0.1408,-9.5084,-4.1742,0.3687,0.250118,0,1698651229,22
-0.2546,0.1738,0.0905,0.1682,-0.4984,2.2183,0.223,0.8208,10.6745,-0.426,-0.7946,-0.0263,1.2235,-10.4322,1.8056,-0.0613,-1.1434,3.0291,0.201,-9.6512,-4.2467,0.4275,0.255632,0,1698651229,23
-0.2481,0.3331,0.0908,0.1327,-0.5215,2.4186,0.311,0.5736,10.9654,-0.348,-1.1262,-0.031,1.3478,-10.509,1.9518,-0.1655,-1.2971,3.6667,-0.0992,-9.753,-4.0997,-0.0525,0.262068,0,1698651229,23
-0.2387,0.4959,0.0905,0.1083,-0.5087,2.5376,0.3895,0.2986,10.9925,-0.0843,-1.4947,-0.0568,1.4571,-10.6507,2.0073,-0.3073,-1.327,3.6855,-0.2445,-10.0399,-3.9294,-0.6,0.268638,0,1698651229,24
-0.2279,0.6422,0.0899,0.0536,-0.423,2.5925,0.4982,-0.007,10.8158,0.2699,-1.8456,-0.0794,1.5148,-10.826,1.9548,-0.4469,-1.6639,3.24,-0.1435,-10.2554,-3.9743,-0.6921,0.276589,0,1698651229,25
-0.217,0.7284,0.0879,-0.0454,-0.1476,2.5457,0.6662,-0.3847,10.8469,0.6506,-2.0849,-0.0654,1.5331,-10.9921,1.8223,-0.5863,-2.0337,2.9613,-0.0591,-10.3738,-4.1364,-0.7228,0.287909,0,1698651229,26
-0.2071,0.7785,0.0837,-0.1902,0.2188,2.4914,0.8018,-0.7682,11.0138,0.8782,-2.1362,0.1074,1.5679,-11.1144,1.6315,-0.7232,-2.3482,2.7116,0.0866,-10.4292,-4.3646,-0.8709,0.303338,0,1698651229,26
-0.1991,0.7774,0.0765,-0.3504,0.3858,2.416,0.8781,-1.047,11.1338,1.01,-2.0703,0.4188,1.6025,-11.1474,1.4595,-0.8731,-2.5687,2.2219,-0.0389,-10.38,-4.524,-1.0124,0.320936,0,1698651229,27
-0.1932,0.7218,0.0669,-0.4804,0.4559,2.158,0.9655,-1.2524,11.2177,1.2768,-2.0319,0.7315,1.5655,-11.0822,1.3339,-1.0264,-2.6854,1.6081,-0.1389,-10.1939,-4.6109,-1.0277,0.337164,0,1698651229,28
-0.1896,0.6233,0.0543,-0.654,0.5112,1.8665,1.059,-1.3306,11.1449,1.5386,-2.0703,0.907,1.4251,-10.873,1.224,-1.1458,-2.8357,1.0742,-0.0189,-9.8156,-4.4489,-1.2003,0.351534,0,1698651229,29
-0.1882,0.4945,0.0391,-0.8671,0.5498,1.6511,1.1469,-1.2834,11.041,1.7346,-2.1777,1.1038,1.2283,-10.5625,1.1866,-1.2468,-2.8996,0.2342,0.0675,-9.4616,-4.2746,-1.3508,0.36272,0,1698651229,29
-0.1879,0.3787,0.0226,-1.0236,0.741,1.4932,1.2893,-1.1714,11.0317,1.9241,-2.3045,1.3564,1.0183,-10.2103,1.2368,-1.3693,-2.9117,-0.6474,0.2028,-9.2561,-4.0588,-1.467,0.366278,0,1698651229,30
-0.1871,0.3317,0.0047,-1.2165,0.932,1.4336,1.4128,-0.9879,10.7939,2.0485,-2.4141,1.5475,0.7547,-9.7751,1.32,-1.515,-3.0157,-1.1958,0.3693,-8.9957,-3.5892,-1.6376,0.362688,0,1698651229,31
-0.1847,0.3268,-0.0142,-1.3957,0.8384,1.4963,1.3552,-0.6947,10.3918,1.9576,-2.5955,1.7045,0.4706,-9.3307,1.4313,-1.6204,-3.3079,-1.4198,0.5079,-8.7077,-3.1573,-1.7248,0.357467,0,1698651229,32
-0.1804,0.3512,-0.0341,-1.5377,0.5611,1.5605,1.1938,-0.3616,10.1065,1.8038,-2.8455,1.8622,0.2509,-8.916,1.5638,-1.7157,-3.6243,-1.5487,0.6122,-8.4727,-2.8419,-1.7355,0.353882,0,1698651229,32
-0.1744,0.4107,-0.0543,-1.6371,0.402,1.5472,1.0215,-0.105,9.7799,1.7816,-3.1053,2.0247,0.1032,-8.5504,1.6998,-1.8725,-3.6024,-1.7502,0.6779,-8.3229,-2.5803,-1.8219,0.281498,0,1698651229,33
-0.1675,0.4657,-0.0745,-1.7179,0.3355,1.548,0.8383,0.1652,9.527,1.7636,-3.4418,2.041,0.0004,-8.3089,1.8301,-2.0518,-3.4176,-2.3046,0.7374,-8.3371,-2.4034,-1.8847,0.280243,0,1698651229,34
-0.16,0.5167,-0.0942,-1.8269,0.2609,1.5835,0.6772,0.3723,9.5133,1.7181,-3.8386,1.8986,-0.0666,-8.1977,1.9382,-2.2389,-3.1496,-2.7702,0.7462,-8.4423,-2.3148,-1.7579,0.421766,0,1698651229,35
-0.1527,0.5769,-0.1131,-1.8776,0.1501,1.6674,0.5453,0.4594,9.6025,1.6416,-4.2244,1.6567,-0.0863,-8.2185,1.9995,-2.3904,-2.8077,-2.883,0.7154,-8.5101,-2.3262,-1.5736,0.549798,0,1698651229,35
-0.1454,0.6369,-0.1315,-1.8663,-0.0681,1.7776,0.373,0.4777,9.6759,1.6468,-4.4865,1.3504,-0.0582,-8.3638,2.0144,-2.3982,-2.5037,-3.038,0.747,-8.57,-2.4516,-1.3872,0.650008,0,1698651229,36
-0.1379,0.6683,-0.1497,-1.8045,-0.3611,1.8599,0.1616,0.4108,9.8132,1.765,-4.5239,1.0707,0.0003,-8.5838,1.9475,-2.2861,-2.2446,-3.212,0.8354,-8.6694,-2.7054,-1.1873,0.727845,0,1698651229,37
-0.1308,0.6831,-0.1685,-1.7482,-0.5742,1.9033,-0.0657,0.2266,10.0572,1.755,-4.3834,0.8723,0.0569,-8.8723,1.8081,-2.1405,-2.0272,-3.0865,0.9339,-8.73,-3.0289,-0.9824,0.787823,0,1698651229,38
-0.1236,0.6988,-0.1889,-1.7455,-0.6963,1.9166,-0.3113,-0.029,10.3307,1.6341,-4.1618,0.736,0.0999,-9.1838,1.6399,-1.9667,-1.9035,-2.6949,0.9593,-8.7499,-3.3248,-0.8103,0.831617,0,1698651229,38
-0.1162,0.708,-0.2094,-1.7991,-0.7638,1.9091,-0.5412,-0.4042,10.5997,1.5488,-3.9019,0.6617,0.1291,-9.4883,1.4604,-1.8238,-1.7273,-2.3405,0.9023,-8.8311,-3.5817,-0.6267,0.854919,0,1698651229,39
-0.1089,0.7196,-0.2275,-1.8557,-0.818,1.8648,-0.7863,-0.787,10.7651,1.4454,-3.6583,0.6593,0.1313,-9.7654,1.3357,-1.7459,-1.443,-2.1453,0.8844,-8.9232,-3.7996,-0.4416,0.851242,0,1698651229,40
-0.1017,0.743,-0.2442,-1.8267,-0.8626,1.7819,-1.0439,-1.0889,10.6998,1.3504,-3.4409,0.7453,0.116,-9.9262,1.2599,-1.7356,-1.2528,-2.0687,0.8748,-8.9598,-3.8465,-0.3869,0.798529,0,1698651229,41
-0.0946,0.7562,-0.2609,-1.7925,-0.8445,1.6306,-1.3071,-1.3619,10.6285,1.3078,-3.2473,0.928,0.0913,-9.9794,1.2406,-1.7461,-1.1392,-2.0152,0.8546,-8.9449,-3.7685,-0.3654,0.686924,0,1698651229,41
-0.0873,0.7354,-0.2765,-1.7558,-0.8636,1.386,-1.59,-1.5149,10.4986,1.3205,-3.0331,1.1789,-0.002,-9.9015,1.2593,-1.743,-1.0442,-1.8986,0.8585,-8.8684,-3.6745,-0.2897,0.564654,0,1698651229,42
-0.0805,0.704,-0.2909,-1.6567,-0.8264,1.0649,-1.8506,-1.642,10.1772,1.3777,-2.7866,1.379,-0.2074,-9.6972,1.2599,-1.7512,-0.8272,-1.9768,0.9723,-8.8373,-3.512,-0.2397,0.465436,0,1698651229,43
-0.0747,0.6794,-0.3045,-1.5619,-0.7456,0.6791,-2.0947,-1.7701,9.9259,1.4252,-2.6122,1.5147,-0.4624,-9.4605,1.2845,-1.7184,-0.4669,-2.1441,1.2141,-8.8041,-3.3438,-0.2044,0.38212,0,1698651229,44
-0.0696,0.6391,-0.3174,-1.5182,-0.7101,0.2831,-2.3312,-1.8784,9.7299,1.4165,-2.5133,1.6764,-0.6622,-9.2443,1.3343,-1.6664,-0.0703,-2.2101,1.6584,-8.7497,-3.2575,-0.1018,0.311863,0,1698651229,44
-0.0647,0.5981,-0.3295,-1.4609,-0.6655,-0.119,-2.5703,-2.0016,9.5793,1.3434,-2.3658,1.8361,-0.7773,-9.0587,1.3884,-1.6215,0.127,-3.1058,2.3563,-8.7072,-3.2549,0.177,0.250664,0,1698651229,45
-0.0602,0.5717,-0.3405,-1.3558,-0.549,-0.5533,-2.7936,-2.1061,9.4286,1.2987,-2.0868,1.9806,-0.8403,-8.8977,1.419,-1.5783,-0.0863,-4.9495,3.0091,-8.5514,-3.24,0.4349,0.099311,0,1698651229,46
-0.0567,0.5295,-0.3498,-1.238,-0.485,-0.9723,-2.9627,-2.1266,9.2734,1.1859,-1.7243,2.1141,-0.8833,-8.774,1.4102,-1.5488,-0.2229,-5.7262,3.0782,-8.4818,-3.1935,0.8299,-0.108305,0,1698651229,47
-0.0541,0.4609,-0.3578,-1.1459,-0.3994,-1.4035,-3.0685,-2.166,9.1261,1.0919,-1.3507,2.2017,-0.9217,-8.6756,1.348,-1.5058,-0.1535,-5.0989,2.601,-8.2345,-3.0068,0.9103,-0.282705,0,1698651229,47
-0.0518,0.3904,-0.3653,-1.0676,-0.3466,-1.8211,-3.143,-2.1606,8.8906,1.0608,-1.0503,2.4035,-0.9704,-8.6036,1.2695,-1.4569,0.0249,-4.5401,2.3572,-7.9157,-2.8333,0.7225,-0.439985,0,1698651229,48
-0.0496,0.3451,-0.3712,-0.934,-0.482,-2.1625,-3.1804,-2.0275,8.6919,0.9474,-0.863,2.4093,-1.0567,-8.5491,1.2309,-1.404,0.3739,-4.0788,2.1765,-7.8394,-2.7851,0.7793,-0.559412,0,1698651229,49
-0.0475,0.2935,-0.3752,-0.7901,-0.5386,-2.4745,-3.1507,-1.9081,8.7527,0.7813,-0.7235,2.1549,-1.1528,-8.4853,1.2406,-1.3527,0.6228,-3.6395,1.8511,-7.7911,-2.7131,0.7959,-0.646707,0,1698651229,50
-0.0452,0.2689,-0.378,-0.6566,-0.4215,-2.7961,-3.0679,-1.787,8.9053,0.6344,-0.5794,2.0705,-1.2146,-8.4042,1.2357,-1.3482,0.6798,-3.3333,1.5933,-7.7442,-2.6965,0.9199,-0.711393,0,1698651229,50
-0.0424,0.2838,-0.3796,-0.5473,-0.276,-3.0894,-2.9082,-1.7203,8.7878,0.5887,-0.4239,2.0826,-1.2643,-8.3562,1.251,-1.389,0.6883,-3.1235,1.2925,-7.7666,-2.6647,1.0393,-0.764332,0,1698651229,51
-0.0394,0.2876,-0.38,-0.441,-0.2345,-3.272,-2.6478,-1.6291,8.7617,0.465,-0.2461,2.074,-1.3106,-8.3136,1.3777,-1.4245,0.5193,-2.8064,0.9822,-7.7129,-2.6004,1.0328,-0.809633,0,1698651229,52
-0.0362,0.2783,-0.3798,-0.3375,-0.3063,-3.3167,-2.3322,-1.4864,8.9315,0.1965,-0.0977,1.983,-1.3466,-8.2137,1.5409,-1.4381,0.3702,-2.3794,0.7496,-7.6661,-2.508,1.0484,-0.846053,0,1698651229,53
-0.0326,0.2872,-0.3795,-0.2575,-0.4635,-3.2952,-2.0512,-1.2796,8.9798,0.0361,-0.0933,1.8885,-1.3506,-8.116,1.708,-1.3945,0.5083,-2.1602,0.6389,-7.7527,-2.3886,1.0434,-0.866663,0,1698651229,53
-0.0275,0.3354,-0.3791,-0.1862,-0.6776,-3.3271,-1.793,-1.0199,8.8737,0.1293,-0.1785,1.8321,-1.312,-8.0471,1.8653,-1.329,0.6735,-1.7053,0.4677,-7.7871,-2.2857,1.0496,-0.838238,0,1698651229,54
-0.0216,0.3936,-0.3783,-0.109,-0.7493,-3.3365,-1.4918,-0.7996,8.7737,0.3161,-0.2267,1.8019,-1.2369,-7.9947,1.9412,-1.3092,0.7661,-1.1185,0.3449,-7.8879,-2.2122,1.2095,-0.715881,0,1698651229,55
-0.0158,0.4121,-0.3755,-0.0024,-0.782,-3.3165,-1.1693,-0.5663,8.3955,0.454,-0.2335,1.7939,-1.1479,-8.0002,2.0552,-1.2948,0.8422,-0.7581,0.241,-7.879,-2.1402,1.2345,-0.55346,0,1698651229,56
-0.01,0.4265,-0.3691,0.1619,-0.9531,-3.2499,-0.8105,-0.3436,7.8375,0.5113,-0.2312,1.7228,-1.0395,-8.0368,2.1403,-1.2997,1.0624,-0.5174,0.1049,-7.8061,-2.1,1.1572,-0.422404,0,1698651229,56
-0.0042,0.4757,-0.3607,0.3292,-1.0289,-3.0788,-0.4117,-0.3369,7.6478,0.5754,-0.2029,1.5722,-0.9093,-8.1259,2.1089,-1.3316,1.3085,-0.0782,-0.0408,-7.8999,-2.089,1.2073,-0.31791,0,1698651229,57
0.0015,0.528,-0.352,0.4529,-1.1279,-2.8761,-0.0534,-0.4296,7.9383,0.4437,-0.1085,1.3623,-0.8048,-8.2873,2.0877,-1.3526,1.4067,0.6592,-0.3398,-8.0014,-2.0533,1.197,-0.231174,0,1698651229,58
0.0085,0.5929,-0.3419,0.5579,-1.1672,-2.5839,0.2199,-0.6752,8.3513,0.2433,0.0372,1.1268,-0.7125,-8.4175,2.0421,-1.3807,1.4412,0.7496,-0.4468,-8.2045,-2.0836,1.2056,-0.159665,0,1698651229,59
0.0165,0.6324,-0.3318,0.6626,-1.035,-2.3715,0.4167,-0.7928,8.5368,0.3857,0.2161,0.9652,-0.6093,-8.52,1.9973,-1.421,1.3334,0.2378,-0.3177,-8.4403,-2.1479,1.2494,-0.104912,0,1698651229,59
0.0237,0.6087,-0.3236,0.7105,-0.5401,-2.0695,0.6559,-0.7178,8.7815,0.6641,0.6959,0.869,-0.4207,-8.7982,2.0367,-1.5658,0.9887,-0.4847,-0.145,-8.7432,-2.2376,0.9922,-0.066332,0,1698651229,60
0.0301,0.5599,-0.3174,0.6753,-0.3459,-1.9004,0.7026,-0.7109,8.9942,0.6986,0.8708,0.8527,-0.3733,-8.937,2.0682,-1.6508,0.8813,-0.9118,-0.0228,-8.9485,-2.2975,0.9567,-0.039121,0,1698651229,61
0.0356,0.524,-0.3127,0.6039,-0.2062,-1.7145,0.7209,-0.7067,9.208,0.6853,0.9223,0.7737,-0.3748,-9.079,2.1002,-1.7275,0.7443,-0.8328,-0.0761,-9.0548,-2.3069,0.9387,-0.018151,0,1698651229,62
0.0398,0.4872,-0.3089,0.5259,-0.0568,-1.559,0.7114,-0.7216,9.457,0.6258,0.8746,0.662,-0.4152,-9.2027,2.1293,-1.7868,0.6148,-0.5209,-0.2079,-9.1069,-2.307,0.8732,-0.06326,0,1698651229,62
0.0438,0.4578,-0.3072,0.4326,0.0737,-1.4101,0.6596,-0.7238,9.626,0.4898,0.7898,0.5641,-0.4823,-9.3255,2.1393,-1.8005,0.5679,-0.3741,-0.3042,-9.2129,-2.3383,0.8012,-0.1696,0,1698651229,63
0.0477,0.4296,-0.3072,0.3333,0.1913,-1.2586,0.5964,-0.6977,9.5673,0.4235,0.723,0.4677,-0.5456,-9.4674,2.1493,-1.7909,0.5272,-0.3529,-0.3663,-9.3978,-2.4244,0.8372,-0.256416,0,1698651229,64
0.0511,0.3975,-0.3074,0.2477,0.367,-1.1606,0.5839,-0.7178,9.4447,0.3717,0.6686,0.3092,-0.5938,-9.5912,2.1599,-1.7396,0.4462,-0.3697,-0.4026,-9.5334,-2.4929,1.0263,-0.302213,0,1698651229,65
0.0542,0.3811,-0.3075,0.1812,0.5035,-1.0444,0.6058,-0.7922,9.5377,0.1721,0.5727,0.0916,-0.6339,-9.6815,2.1711,-1.6233,0.4378,-0.5259,-0.4009,-9.5583,-2.5201,1.2192,-0.292273,0,1698651229,65
0.0571,0.3702,-0.3076,0.1352,0.549,-0.9192,0.6236,-0.9847,9.7162,-0.0745,0.459,-0.1661,-0.659,-9.7637,2.1742,-1.4832,0.4927,-0.6669,-0.4192,-9.4991,-2.5712,1.3471,-0.238838,0,1698651229,66
0.0603,0.3691,-0.3076,0.1065,0.5324,-0.8748,0.6426,-1.2336,9.9191,-0.2688,0.3792,-0.4378,-0.6487,-9.8198,2.174,-1.3587,0.5762,-0.8522,-0.4642,-9.4467,-2.6558,1.4812,-0.166768,0,1698651229,67
0.0639,0.3704,-0.3077,0.0898,0.5126,-0.9426,0.6641,-1.4802,10.0801,-0.3438,0.3342,-0.7128,-0.593,-9.8569,2.1366,-1.2983,0.7092,-1.2262,-0.499,-9.4391,-2.7777,1.6463,-0.09939,0,1698651229,68
0.068,0.3593,-0.3078,0.0697,0.5803,-1.2618,0.6779,-1.8015,10.0653,-0.2618,0.493,-1.2661,-0.4236,-9.9848,1.8761,-1.3134,1.1625,-1.7279,-0.7636,-9.3364,-3.0926,1.7895,-0.052678,0,1698651229,68
0.0718,0.3395,-0.3077,0.054,0.7254,-1.5116,0.678,-1.8526,10.0833,-0.1713,0.778,-1.5104,-0.3449,-10.0527,1.7401,-1.3083,1.4126,-1.8271,-0.9438,-9.2906,-3.2644,1.8242,-0.020894,0,1698651229,69
0.0744,0.3022,-0.3075,0.0603,0.9447,-1.7525,0.4129,-1.9035,10.2501,-0.062,1.1016,-1.6924,-0.2769,-10.1078,1.6229,-1.322,1.6308,-1.9341,-1.0966,-9.2984,-3.3974,1.8395,-0.001734,0,1698651229,70
0.076,0.2356,-0.3064,0.097,0.9283,-2.0427,0.0477,-1.7407,10.2605,0.1739,1.376,-1.8467,-0.2258,-10.1828,1.5635,-1.3529,1.859,-2.0776,-1.2195,-9.3787,-3.5399,1.8198,0.005082,0,1698651229,71
0.0766,0.1766,-0.3038,0.1469,0.7239,-2.3721,-0.1473,-1.4218,10.4498,0.4432,1.5269,-1.9894,-0.198,-10.2824,1.5475,-1.3961,2.0507,-2.1406,-1.3525,-9.4999,-3.6467,1.7727,0.00201,0,1698651229,71
0.0766,0.1362,-0.2999,0.2029,0.6861,-2.5385,-0.3022,-1.1482,10.8935,0.708,1.5674,-2.091,-0.1671,-10.4629,1.506,-1.4621,2.2014,-2.1715,-1.4762,-9.7009,-3.6809,1.7367,-0.006196,0,1698651229,72
0.0765,0.1051,-0.2951,0.2534,0.7786,-2.4896,-0.3978,-0.8533,11.0487,0.9931,1.6441,-2.1204,-0.1217,-10.7077,1.4478,-1.5347,2.2587,-2.2774,-1.5382,-9.9993,-3.7243,1.6897,-0.014528,1,1698651229,73
0.0764,0.086,-0.29,0.2871,0.9578,-2.3358,-0.4687,-0.4755,11.1061,1.3457,1.7752,-2.0743,-0.0882,-10.9483,1.4189,-1.6146,2.0911,-2.196,-1.571,-10.3248,-3.7314,1.5931,-0.019637,1,1698651229,74
0.0758,0.0619,-0.2855,0.3024,1.1175,-2.1038,-0.5885,-0.0128,11.1496,1.7366,1.8549,-2.0094,-0.0946,-11.1477,1.4213,-1.7499,1.6984,-1.8414,-1.5846,-10.5937,-3.6553,1.5001,-0.027586,1,1698651229,74
0.0739,-0.0091,-0.2818,0.3103,1.2441,-1.7991,-0.7164,0.3661,11.3013,1.9323,1.8009,-1.9565,-0.1558,-11.2559,1.428,-1.9154,1.2408,-1.2983,-1.5705,-10.7512,-3.5628,1.3769,-0.092045,1,1698651229,75
0.0698,-0.117,-0.2775,0.3302,1.3824,-1.4526,-0.7494,0.5498,11.3953,1.9029,1.6405,-1.843,-0.2442,-11.2364,1.4174,-2.0391,0.8326,-0.6192,-1.5117,-10.8145,-3.4976,1.2384,-0.181152,1,1698651229,76
0.0632,-0.2748,-0.2718,0.3597,1.5044,-1.0403,-0.6412,0.5321,11.211,1.8417,1.4366,-1.6892,-0.3342,-11.1078,1.3723,-2.1026,0.4755,0.0081,-1.3681,-10.7664,-3.4414,1.1137,-0.252453,1,1698651229,77
0.0539,-0.4702,-0.2651,0.4215,1.6068,-0.6135,-0.4131,0.3425,11.1132,1.7716,1.2042,-1.5408,-0.4135,-10.8849,1.2929,-2.1263,0.1802,0.5268,-1.1739,-10.5791,-3.4017,0.9792,-0.319887,1,1698651229,77
0.0421,-0.6626,-0.2583,0.522,1.6011,-0.2496,-0.1712,0.0992,10.916,1.7224,0.9537,-1.3777,-0.4767,-10.5572,1.1975,-2.1276,-0.1122,1.0251,-0.9966,-10.2682,-3.3498,0.8773,-0.398644,1,1698651229,78
0.0282,-0.8449,-0.2506,0.5919,1.514,0.056,0.1002,-0.1825,10.5024,1.7227,0.7251,-1.142,-0.4875,-10.1381,1.0823,-2.1018,-0.4237,1.477,-0.8538,-9.8716,-3.3028,0.8047,-0.489056,1,1698651229,79
0.0129,-1.0329,-0.2421,0.6224,1.3096,0.4586,0.7036,-0.716,10.1722,1.6139,0.7721,-0.5082,-0.2775,-9.2135,0.7036,-2.0952,-0.7135,2.0814,-0.693,-8.9406,-3.4163,0.5806,-0.535029,1,1698651229,80
-0.0043,-1.1824,-0.2333,0.6374,1.1513,0.4647,0.9331,-0.8146,10.064,1.6371,0.9539,-0.3099,-0.1691,-8.822,0.479,-2.0949,-0.6837,2.3256,-0.6998,-8.4933,-3.5159,0.4577,-0.511024,0,1698651229,80
-0.0228,-1.2495,-0.2244,0.6736,1.0104,0.3663,1.1062,-0.9639,10.0224,1.6449,1.1718,-0.1626,-0.0526,-8.479,0.2329,-2.0786,-0.5787,2.505,-0.7468,-8.0713,-3.6421,0.3394,-0.418177,0,1698651229,81
-0.0412,-1.2955,-0.2154,0.7279,0.8669,0.2643,1.2322,-1.2129,9.9383,1.5703,1.4305,-0.0806,0.0686,-8.2098,0.0131,-2.04,-0.3642,2.6426,-0.8209,-7.6938,-3.7958,0.203,-0.250475,0,1698651229,82
-0.0601,-1.3924,-0.2066,0.7602,0.7443,0.1833,1.2857,-1.3289,9.8702,1.4584,1.7542,-0.0118,0.1891,-8.0417,-0.1728,-1.9782,-0.0255,2.5791,-0.8545,-7.4276,-3.9646,0.0398,-0.031452,0,1698651230,83
-0.0787,-1.4692,-0.1977,0.7991,0.6125,0.0284,1.242,-1.2708,9.8259,1.4564,2.0848,-0.0214,0.2964,-8.0086,-0.3108,-1.904,0.3987,2.413,-0.8875,-7.3103,-4.1264,-0.0813,0.04868,0,1698651230,83
-0.0955,-1.4691,-0.1894,0.8047,0.5118,-0.2078,1.0991,-1.1419,9.815,1.5284,2.3314,-0.1934,0.349,-8.1016,-0.3819,-1.8245,0.8134,2.2303,-0.9207,-7.3278,-4.2375,-0.1174,-0.00166,0,1698651230,84
-0.1102,-1.4889,-0.1819,0.7688,0.3262,-0.4168,0.8781,-0.935,9.8678,1.4667,2.3815,-0.5528,0.3166,-8.2409,-0.4102,-1.7534,1.1602,1.9188,-0.8809,-7.3996,-4.3146,-0.1444,-0.01864,0,1698651230,85
-0.1247,-1.5423,-0.1744,0.7708,0.0491,-0.5348,0.6638,-0.71,9.8909,1.4367,2.2892,-0.8685,0.2514,-8.4023,-0.3888,-1.669,1.3869,1.7357,-0.8526,-7.5171,-4.3149,-0.1049,0.017184,0,1698651230,86
-0.1407,-1.5842,-0.1664,0.7881,-0.115,-0.6862,0.5076,-0.3785,10.0344,1.5783,2.174,-1.0959,0.1641,-8.6402,-0.2998,-1.5946,1.5332,1.763,-0.9013,-7.6461,-4.2785,-0.1916,0.123832,0,1698651230,86
-0.158,-1.5522,-0.1579,0.7854,-0.2075,-0.8583,0.4076,-0.0543,10.1389,1.7219,2.1041,-1.2052,0.0827,-8.8872,-0.1323,-1.5224,1.5617,1.7936,-0.888,-7.7935,-4.2439,-0.4132,0.2634,0,1698651230,87
-0.1753,-1.5558,-0.1494,0.7719,-0.2828,-0.8897,0.4024,0.1196,10.0635,1.7862,2.0695,-1.0541,0.0364,-9.0872,0.0815,-1.472,1.4261,1.8233,-0.8001,-7.9923,-4.1402,-0.3907,0.387307,0,1698651230,88
-0.1919,-1.596,-0.1414,0.7537,-0.3387,-0.834,0.4963,0.2733,9.9924,1.7877,2.0051,-0.7969,-0.0199,-9.2427,0.3053,-1.4363,1.1819,2.0842,-0.7515,-8.2068,-3.9913,-0.2137,0.495443,0,1698651230,89
-0.2071,-1.5635,-0.134,0.755,-0.3846,-0.7217,0.6647,0.3563,9.8791,1.7673,1.9312,-0.4446,-0.1012,-9.3098,0.4962,-1.3968,0.9257,2.2945,-0.6378,-8.4557,-3.8625,-0.0248,0.587033,0,1698651230,89
-0.221,-1.5079,-0.1272,0.7572,-0.388,-0.5467,0.8798,0.408,9.8144,1.7629,1.8738,-0.0355,-0.1975,-9.2937,0.5963,-1.4,0.6824,2.3078,-0.4789,-8.6028,-3.7403,0.1007,0.648667,0,1698651230,90
-0.2333,-1.4506,-0.1205,0.7487,-0.4204,-0.3153,1.1075,0.5142,9.6505,1.7742,1.8189,0.3283,-0.2766,-9.246,0.6632,-1.3609,0.5225,2.2244,-0.2701,-8.7665,-3.6767,0.2022,0.690906,0,1698651230,91
-0.2442,-1.3698,-0.1134,0.7479,-0.4013,-0.0802,1.3448,0.5971,9.3346,1.7704,1.7465,0.5683,-0.3236,-9.1712,0.6956,-1.3083,0.4033,2.2611,-0.0935,-8.7905,-3.6388,0.2349,0.728019,0,1698651230,92
-0.2539,-1.2462,-0.1058,0.7572,-0.3157,0.1245,1.5743,0.6456,9.1209,1.7236,1.698,0.7308,-0.3396,-9.0373,0.6615,-1.2971,0.2605,2.904,-0.0791,-8.5839,-3.597,0.1613,0.730921,0,1698651230,92
-0.2622,-1.1254,-0.0977,0.7601,-0.2662,0.3484,1.7687,0.6752,8.9946,1.7242,1.6756,0.8358,-0.3265,-8.8664,0.5852,-1.3167,0.0967,3.3982,0.0088,-8.43,-3.6014,0.1771,0.639386,0,1698651230,93
-0.2692,-1.0231,-0.0897,0.7691,0.0653,0.5742,1.9351,0.6784,8.9849,1.6586,1.7545,0.959,-0.2396,-8.7048,0.4565,-1.3338,-0.1498,3.7778,0.0269,-8.214,-3.618,0.2948,0.436837,0,1698651230,94
-0.2753,-0.9159,-0.0815,0.8137,0.3578,0.753,2.0677,0.6247,9.0519,1.4895,1.8797,1.1136,-0.1159,-8.5613,0.3966,-1.3078,-0.3149,4.1699,0.0281,-8.0805,-3.6573,0.4342,0.359362,0,1698651230,95
-0.2808,-0.816,-0.0729,0.8501,0.4417,0.9986,2.1645,0.5746,9.145,1.2168,1.9155,1.0247,-0.0284,-8.377,0.4583,-1.1422,-0.3854,4.2269,0.1316,-7.9395,-3.7082,0.4454,0.417266,0,1698651230,95
-0.2852,-0.7297,-0.0645,0.8665,0.4081,1.0656,2.1207,0.6187,9.1929,1.0795,1.8957,0.9575,-0.0046,-8.325,0.4903,-1.0157,-0.2141,4.609,0.0353,-7.8493,-3.7172,0.4141,0.457881,0,1698651230,96
-0.2888,-0.6478,-0.0564,0.8529,0.3402,1.1347,2.0482,0.7083,9.3322,0.8551,1.8658,0.8465,0.0487,-8.3243,0.5078,-0.8996,0.0494,4.6382,0.0857,-7.8143,-3.7675,0.362,0.428851,0,1698651230,97
-0.2917,-0.5546,-0.0485,0.8047,0.1691,1.1722,1.923,0.7116,9.4393,0.7387,1.8869,0.8012,0.1626,-8.3704,0.5271,-0.7853,0.2685,4.568,0.1565,-7.7695,-3.8247,0.3368,0.22544,0,1698651230,98
-0.2935,-0.4461,-0.041,0.7484,-0.0652,1.1834,1.7507,0.6858,9.4086,0.6622,2.0022,0.812,0.2929,-8.4256,0.5271,-0.7287,0.4131,4.9821,0.0009,-7.6315,-3.9002,0.2503,0.106186,0,1698651230,98
-0.294,-0.3561,-0.034,0.6905,-0.2813,1.2066,1.5487,0.7465,9.4955,0.4676,2.1189,0.7352,0.3701,-8.479,0.5102,-0.7108,0.6337,4.9664,-0.027,-7.5625,-3.9805,0.1656,0.079843,0,1698651230,99
-0.294,-0.2997,-0.0277,0.6693,-0.5191,1.1897,1.3236,0.7434,9.6038,0.3359,2.1696,0.6278,0.3918,-8.5594,0.51,-0.6622,0.765,4.7922,-0.0019,-7.4125,-4.1345,0.2681,-0.044393,0,1698651230,0
-0.294,-0.2356,-0.0218,0.6632,-0.7966,1.1671,1.0542,0.7568,9.5837,0.2384,2.1911,0.4907,0.5868,-8.651,0.4839,-0.6445,0.8558,4.7975,-0.0564,-7.2855,-4.2453,0.347,-0.022665,0,1698651230,1
-0.2938,-0.1644,-0.0166,0.6242,-1.0565,1.1267,0.7486,0.7581,9.6029,0.1004,2.1915,0.4039,0.7339,-8.7185,0.4633,-0.6268,1.1378,4.396,-0.0835,-7.4127,-4.1793,0.324,0.047048,0,1698651230,2
-0.2936,-0.1136,-0.012,0.5712,-1.2874,1.0543,0.4329,0.715,9.6469,-0.0033,2.1834,0.3483,0.6608,-8.7839,0.4877,-0.59,1.3806,4.0245,-0.1344,-7.6168,-4.1165,0.2971,-0.072747,0,1698651230,2
-0.2934,-0.0805,-0.0074,0.5382,-1.5425,0.9546,0.1118,0.6283,9.5739,-0.036,2.1847,0.3103,0.6457,-8.8321,0.5205,-0.5588,1.5028,3.6473,-0.0903,-7.804,-4.0913,0.25,-0.255961,0,1698651230,3
-0.2933,-0.0616,-0.0025,0.519,-1.8046,0.873,-0.2075,0.577,9.4036,-0.0183,2.1644,0.2875,0.6877,-8.8781,0.5648,-0.5273,1.5158,3.4174,-0.1286,-7.8903,-4.0674,0.2068,-0.402799,0,1698651230,4
-0.2932,-0.0475,0.0022,0.5038,-1.8769,0.7771,-0.5015,0.5431,9.2464,0.0785,2.118,0.2102,0.7509,-8.9264,0.6061,-0.5189,1.5132,3.0369,-0.1089,-7.9942,-4.0248,0.1897,-0.49686,0,1698651230,5
-0.293,-0.0347,0.0062,0.4931,-1.7184,0.6328,-0.7341,0.4199,9.0685,0.213,2.0692,0.1161,0.8291,-8.9785,0.647,-0.492,1.5129,2.5768,-0.0492,-8.0776,-3.9723,0.1613,-0.562568,0,1698651230,5
-0.2926,-0.0375,0.0103,0.4866,-1.6455,0.5744,-0.902,0.342,8.9007,0.2371,2.004,0.0421,0.8897,-9.033,0.6817,-0.4803,1.4027,2.2527,-0.0268,-8.1466,-3.9351,0.1319,-0.589963,0,1698651230,6
-0.2922,-0.0352,0.015,0.4904,-1.64,0.5657,-1.0128,0.369,8.8467,0.186,1.8851,-0.0349,0.9002,-9.0849,0.6961,-0.4981,1.2549,1.9567,-0.0093,-8.2344,-3.9293,0.0832,-0.518215,0,1698651230,7
-0.2911,0.0002,0.0197,0.4812,-1.461,0.518,-1.0699,0.374,8.7912,0.192,1.7281,-0.1502,0.8803,-9.1789,0.7032,-0.5088,1.0855,1.7813,-0.0341,-8.3556,-3.9558,0.0302,-0.379747,0,1698651230,8
-0.2889,0.0696,0.0237,0.4524,-1.213,0.5083,-1.0981,0.3881,8.7294,0.2418,1.5405,-0.2883,0.852,-9.3052,0.6928,-0.5302,0.8765,1.6365,-0.0713,-8.5072,-3.9993,0.0013,-0.262196,0,1698651230,9
-0.2854,0.1467,0.0271,0.4177,-0.9853,0.5254,-1.0867,0.4581,8.8321,0.2915,1.3112,-0.4381,0.8402,-9.4607,0.7015,-0.5478,0.6459,1.4576,-0.0967,-8.662,-4.0403,-0.0266,-0.165711,0,1698651230,9
-0.2807,0.2154,0.0306,0.4146,-0.8009,0.5583,-1.031,0.5164,9.0038,0.3087,1.0684,-0.5844,0.8464,-9.6232,0.7374,-0.5682,0.4131,1.2973,-0.1361,-8.8141,-4.0717,-0.0452,-0.079377,0,1698651230,10
-0.2758,0.2788,0.034,0.42,-0.6184,0.6572,-0.9179,0.5607,9.1474,0.2713,0.856,-0.7099,0.864,-9.7427,0.7922,-0.5953,0.1599,1.2206,-0.2076,-8.9617,-4.0728,-0.0263,-0.004477,0,1698651230,11
-0.2712,0.2998,0.0372,0.3716,-0.3377,0.7212,-0.7755,0.6159,9.2281,0.3013,0.6517,-0.8176,0.8803,-9.8358,0.86,-0.6049,-0.1527,1.2223,-0.2682,-9.0856,-4.0413,0.0245,0.070878,0,1698651230,12
-0.2679,0.2652,0.0394,0.3194,-0.0695,0.7521,-0.6248,0.6404,9.3927,0.3198,0.4454,-0.9072,0.8809,-9.902,0.9295,-0.577,-0.4373,1.435,-0.3767,-9.1437,-4.0374,0.0129,0.142154,0,1698651230,13
-0.2666,0.2089,0.041,0.2931,-0.0543,1.0139,-0.3691,0.6939,9.851,-0.0856,0.1234,-0.931,0.8714,-9.9711,0.9907,-0.5214,-0.6252,1.7401,-0.3846,-9.2119,-4.1806,-0.1172,0.193951,0,1698651230,13
-0.2663,0.1529,0.0426,0.2643,0.0357,1.1312,-0.2802,0.745,9.9072,-0.2258,0.0069,-0.9647,0.8655,-10.0458,0.9663,-0.5659,-0.5256,1.7187,-0.3444,-9.3067,-4.2827,-0.2516,0.228356,0,1698651230,14
-0.2663,0.1093,0.0442,0.2572,0.1754,1.2751,-0.1847,0.7658,9.9338,-0.331,-0.1399,-1.0777,0.8763,-10.1723,0.9668,-0.6122,-0.4423,1.6058,-0.3327,-9.4528,-4.3267,-0.2553,0.266074,0,1698651230,15
-0.2661,0.0879,0.0465,0.282,0.3223,1.4364,-0.0662,0.7653,10.1346,-0.3843,-0.3459,-1.2652,0.9085,-10.3087,1.0421,-0.6102,-0.4457,1.4764,-0.3185,-9.6186,-4.2589,-0.197,0.310086,0,1698651230,16
-0.2652,0.0925,0.05,0.301,0.4824,1.5548,0.0488,0.699,10.3712,-0.3242,-0.5493,-1.462,0.9651,-10.4147,1.1607,-0.6196,-0.4791,1.3767,-0.3715,-9.8263,-4.2566,-0.0921,0.328273,0,1698651230,16
-0.2617,0.1683,0.0536,0.2916,0.5556,1.6646,0.1075,0.6268,10.4591,-0.1912,-0.733,-1.5969,1.0457,-10.5339,1.3063,-0.6588,-0.5647,1.4177,-0.4713,-10.0028,-4.2793,-0.1172,0.321583,0,1698651230,17
-0.2542,0.3539,0.0558,0.2465,0.35,1.738,0.0891,0.5235,10.534,0.0594,-0.9693,-1.7171,1.1509,-10.6853,1.4603,-0.6926,-0.4863,1.2672,-0.733,-10.1947,-4.1923,-0.3214,0.355915,0,1698651230,18
-0.243,0.5968,0.0561,0.1911,0.1733,1.7524,0.034,0.3342,10.6949,0.3765,-1.2509,-1.8257,1.2573,-10.8301,1.5521,-0.7903,-0.5319,0.8409,-0.886,-10.3959,-4.2124,-0.4972,0.427052,0,1698651230,19
-0.2298,0.7888,0.0559,0.1495,0.278,1.7679,0.0107,0.0578,10.9149,0.6313,-1.5744,-1.8743,1.3281,-10.9814,1.5937,-0.9511,-0.938,0.215,-0.8378,-10.3996,-4.3369,-0.6136,0.469673,0,1698651230,20
-0.2157,0.8818,0.0557,0.1134,0.5477,1.7347,0.066,-0.2408,11.2992,0.9637,-1.8828,-1.8618,1.3421,-11.143,1.556,-1.1277,-1.2518,-0.768,-0.9801,-10.3939,-4.4356,-0.6741,0.455774,0,1698651230,20
-0.2025,0.9251,0.0541,0.0534,0.9106,1.5828,0.1771,-0.6385,11.325,1.3362,-2.044,-1.7754,1.2993,-11.2821,1.4246,-1.2955,-1.3216,-1.8886,-0.9935,-10.4934,-4.5209,-0.7495,0.40939,0,1698651230,21
-0.1924,0.9033,0.0503,-0.07,1.1575,1.4794,0.3196,-0.9816,11.1136,1.4663,-2.0677,-1.6409,1.2286,-11.4049,1.3258,-1.4245,-1.2208,-2.5161,-0.7398,-10.5531,-4.503,-0.9282,0.367283,0,1698651230,22
-0.1852,0.8405,0.0433,-0.2612,1.316,1.3589,0.426,-1.1366,11.2771,1.6074,-1.9907,-1.4112,1.1575,-11.4444,1.2848,-1.5261,-1.0947,-2.6039,-0.5026,-10.5556,-4.4016,-1.042,0.333084,0,1698651230,23
-0.18,0.7967,0.0326,-0.5074,1.3463,1.158,0.4738,-1.2097,11.547,1.7657,-1.8542,-1.0922,1.0749,-11.2998,1.2688,-1.6253,-1.1127,-2.6856,-0.3772,-10.422,-4.2807,-1.1039,0.307087,0,1698651230,23
-0.1761,0.7212,0.0197,-0.7191,1.3459,1.0292,0.5151,-1.1713,11.6287,1.7927,-1.7695,-0.7609,0.9521,-11.0196,1.3181,-1.7181,-1.1054,-2.9102,-0.2355,-10.2221,-4.1025,-1.1979,0.286144,0,1698651230,24
-0.1732,0.611,0.0056,-0.8494,1.2937,0.9352,0.5668,-0.9796,11.3976,1.8505,-1.7438,-0.4167,0.808,-10.6293,1.4114,-1.7892,-1.0298,-3.1085,-0.1007,-9.9553,-3.8091,-1.3148,0.266477,0,1698651230,25
-0.1707,0.5296,-0.0097,-1.0346,1.1645,0.8527,0.6078,-0.7128,11.0719,1.9157,-1.7195,-0.0376,0.8956,-10.1168,1.5096,-1.8165,-1.0146,-3.2558,-0.0625,-9.5746,-3.414,-1.3666,0.314299,0,1698651230,26
-0.167,0.5158,-0.0266,-1.2247,1.0539,0.8475,0.5672,-0.4213,10.7235,1.9367,-1.7535,0.3718,0.9414,-9.5638,1.659,-1.8062,-1.0709,-3.3309,-0.009,-9.1985,-3.0423,-1.3386,0.43837,0,1698651230,27
-0.1615,0.5689,-0.0437,-1.3565,0.8845,0.9107,0.4284,-0.1076,10.266,1.9154,-1.8719,0.7614,0.7537,-9.0268,1.8281,-1.7844,-1.2723,-3.1643,0.0488,-8.8962,-2.7192,-1.2961,0.55348,0,1698651230,27
-0.1541,0.6297,-0.0615,-1.5101,0.7375,0.9897,0.2438,0.2193,9.7493,1.9001,-2.0457,1.0854,0.6284,-8.5396,1.9797,-1.7775,-1.6018,-2.7596,0.0494,-8.5852,-2.4051,-1.2825,0.627064,0,1698651230,28
-0.1453,0.6531,-0.08,-1.6644,0.5689,1.1098,0.0356,0.5175,9.3044,1.8677,-2.2208,1.3199,0.5473,-8.1124,2.0568,-1.8463,-1.7409,-2.5254,0.1129,-8.2835,-2.2098,-1.3148,0.673031,0,1698651230,29
-0.1361,0.6672,-0.0978,-1.7084,0.4694,1.244,-0.1703,0.6834,9.0299,1.8232,-2.436,1.4143,0.5004,-7.7912,2.0515,-1.9419,-1.6751,-2.6767,0.2662,-8.0906,-2.1249,-1.3617,0.724693,0,1698651230,30
-0.1272,0.6812,-0.1151,-1.6777,0.4228,1.3909,-0.3678,0.7516,8.9158,1.8181,-2.7335,1.3309,0.4658,-7.6489,2.0452,-2.0017,-1.6198,-2.8879,0.4082,-7.9461,-2.1007,-1.3343,0.781796,0,1698651230,30
-0.1188,0.7078,-0.1317,-1.6534,0.2486,1.5766,-0.5621,0.7455,8.9796,1.7807,-3.0132,1.0982,0.4201,-7.6663,2.0299,-2.0458,-1.489,-3.1074,0.5876,-7.8299,-2.1671,-1.2254,0.829569,0,1698651230,31
-0.1111,0.7037,-0.1477,-1.646,0.0493,1.7685,-0.736,0.5614,9.1994,1.6611,-3.2663,0.7777,0.3803,-7.8205,2.0106,-2.0073,-1.3704,-3.208,0.7466,-7.7998,-2.3425,-0.9892,0.867305,0,1698651230,32
-0.1039,0.6823,-0.1633,-1.628,-0.0679,1.9389,-0.8703,0.1669,9.5842,1.5144,-3.5327,0.5023,0.3597,-8.0539,1.9627,-1.8844,-1.3609,-3.0663,0.7567,-7.8418,-2.561,-0.7194,0.896688,0,1698651230,33
-0.0966,0.6683,-0.1791,-1.5806,-0.1053,2.0814,-0.9515,-0.2985,10.0544,1.435,-3.7976,0.2927,0.3394,-8.3148,1.8554,-1.7833,-1.5274,-2.9102,0.7151,-7.9662,-2.6818,-0.5599,0.919444,0,1698651230,34
-0.0893,0.6544,-0.1952,-1.5477,-0.1369,2.1606,-1.0462,-0.7346,10.2694,1.4091,-3.9905,0.1247,0.316,-8.624,1.7387,-1.708,-1.6951,-2.8307,0.7015,-8.1865,-2.8043,-0.4135,0.936905,0,1698651230,34
-0.0815,0.6896,-0.2111,-1.5137,-0.1751,2.1932,-1.1955,-1.087,10.1349,1.3914,-4.0313,0.0565,0.3105,-8.9543,1.6344,-1.6316,-1.6643,-2.6786,0.6578,-8.4349,-3.0065,-0.2247,0.949829,0,1698651230,35
-0.0737,0.7122,-0.2266,-1.5344,-0.2772,2.1792,-1.3567,-1.3909,9.9751,1.3595,-3.8755,0.0836,0.3166,-9.1989,1.5414,-1.6153,-1.5449,-2.5656,0.6434,-8.6022,-3.2249,-0.0735,0.957847,0,1698651230,36
-0.066,0.712,-0.2414,-1.57,-0.3949,2.0875,-1.4913,-1.5839,9.8548,1.335,-3.6114,0.1754,0.3059,-9.3407,1.5135,-1.6561,-1.4803,-2.4625,0.6825,-8.6912,-3.3284,-0.0357,0.95411,0,1698651230,37
-0.0588,0.7037,-0.2554,-1.5608,-0.407,1.9386,-1.5685,-1.726,9.6554,1.3231,-3.3099,0.326,0.272,-9.3913,1.5092,-1.7242,-1.6789,-2.3696,0.7495,-8.7919,-3.2547,-0.079,0.878576,0,1698651230,38
-0.0526,0.6697,-0.2689,-1.5335,-0.3695,1.7574,-1.6038,-1.8894,9.5252,1.2992,-3.0058,0.5094,0.2168,-9.3322,1.5062,-1.7989,-1.7514,-2.248,0.8646,-8.8626,-3.1495,-0.1328,0.733879,0,1698651230,38
-0.0471,0.6531,-0.2816,-1.4881,-0.3328,1.5476,-1.6304,-1.9617,9.4034,1.2807,-2.7288,0.7038,0.1227,-9.2154,1.5458,-1.8594,-1.4711,-2.071,1.0248,-8.8823,-3.0718,-0.1713,0.598692,0,1698651230,39
-0.042,0.624,-0.2933,-1.4338,-0.2275,1.2705,-1.6629,-1.9776,9.1809,1.3045,-2.4837,0.9579,0.013,-9.1002,1.6209,-1.8604,-1.1477,-1.9658,1.2276,-8.8965,-2.9982,-0.1552,0.490669,0,1698651230,40
-0.0376,0.5532,-0.3042,-1.3888,-0.0444,0.9777,-1.7019,-2.0043,9.0652,1.2792,-2.2815,1.1954,-0.0892,-8.9901,1.6976,-1.7898,-0.8062,-1.9105,1.4737,-8.877,-2.9158,-0.1141,0.402762,0,1698651230,41
-0.0339,0.5005,-0.3143,-1.3437,0.028,0.7136,-1.767,-1.9636,9.0111,1.1793,-2.0911,1.3321,-0.1823,-8.8696,1.7586,-1.6997,-0.454,-1.8727,1.8549,-8.8151,-2.8631,-0.0307,0.332242,0,1698651230,41
-0.0303,0.482,-0.3235,-1.2924,0.1285,0.3849,-1.8603,-1.9726,9.0622,1.16,-1.9126,1.4238,-0.2537,-8.7762,1.8148,-1.5765,-0.1319,-2.0283,2.4212,-8.7668,-2.8341,0.0919,0.277202,0,1698651230,42
-0.0264,0.4709,-0.3318,-1.2095,0.2058,0.0563,-1.9617,-2.0365,9.0983,1.0963,-1.7706,1.4516,-0.316,-8.7336,1.8606,-1.4728,0.1976,-2.7507,2.8866,-8.7493,-2.8157,0.2478,0.23136,0,1698651230,43
-0.0225,0.4498,-0.3385,-1.1021,0.2615,-0.169,-2.0276,-2.0407,9.0171,0.9221,-1.6619,1.4118,-0.3704,-8.6925,1.8953,-1.4102,0.2788,-3.1389,3.0605,-8.5933,-2.7561,0.3012,0.189855,0,1698651230,44
-0.0193,0.4117,-0.3441,-0.9874,0.3585,-0.4097,-2.0431,-2.0098,9.1724,0.756,-1.5733,1.3749,-0.4151,-8.6478,1.8892,-1.3573,0.1629,-3.2393,2.9946,-8.3384,-2.6941,0.2244,0.153032,0,1698651230,45
-0.0166,0.3838,-0.3487,-0.8571,0.2506,-0.6393,-2.0431,-1.9997,9.3948,0.4926,-1.4933,1.3906,-0.4738,-8.613,1.8844,-1.3242,0.0704,-3.411,2.6553,-8.1488,-2.5987,0.2777,0.121066,0,1698651230,45
-0.0133,0.3729,-0.352,-0.7354,0.1523,-0.8014,-2.0406,-2.0503,9.3955,0.2134,-1.4432,1.4241,-0.5832,-8.6096,1.8802,-1.3044,-0.1038,-3.1847,2.2546,-8.025,-2.4844,0.4194,0.09546,0,1698651230,46
-0.0085,0.3991,-0.3541,-0.6032,0.2362,-1.0398,-2.0242,-2.0825,9.2899,0.1572,-1.4681,1.3793,-0.9989,-8.6491,1.8373,-1.3157,-0.2859,-2.9391,1.9041,-7.9473,-2.4214,0.5313,0.076598,0,1698651230,47
-0.0028,0.4637,-0.355,-0.4682,0.3823,-1.3128,-1.9313,-2.0676,9.0127,0.2418,-1.4747,1.3821,-1.3857,-8.6552,1.804,-1.3143,-0.3064,-2.8634,1.5731,-7.9182,-2.3833,0.5773,0.031118,0,1698651230,48
0.003,0.5145,-0.355,-0.3706,0.4071,-1.4668,-1.7655,-1.9462,8.9127,0.1947,-1.3793,1.5061,-1.4236,-8.6177,1.8287,-1.2804,-0.3198,-2.8157,1.27,-7.9231,-2.3661,0.64,-0.072787,0,1698651230,48
0.009,0.5497,-0.3548,-0.2912,0.2722,-1.5447,-1.6111,-1.7621,8.9948,0.0713,-1.2609,1.5095,-1.3875,-8.5544,1.896,-1.2313,-0.1972,-2.7607,1.0226,-8.0333,-2.3706,0.793,-0.183721,0,1698651230,49
0.0156,0.5705,-0.3544,-0.2109,0.0898,-1.6342,-1.4553,-1.6373,8.9294,0.0113,-1.1936,1.2659,-1.3057,-8.4742,1.9584,-1.1833,-0.0116,-2.6115,0.7981,-8.1387,-2.3701,0.8442,-0.246318,0,1698651230,50
0.0219,0.5554,-0.3541,-0.1544,-0.0612,-1.7242,-1.2355,-1.5871,8.9108,-0.0463,-1.2172,0.8917,-1.2286,-8.413,2.0362,-1.1479,-0.0115,-2.366,0.5487,-8.1273,-2.3141,0.8931,-0.283895,0,1698651230,51
0.0277,0.5414,-0.3537,-0.1041,-0.2416,-1.8375,-0.9804,-1.5572,9.0577,-0.1119,-1.3275,0.5636,-1.2283,-8.3473,2.1133,-1.1263,0.072,-2.4302,0.4777,-8.185,-2.2944,1.0884,-0.337372,0,1698651230,52
0.0334,0.5564,-0.3526,-0.0194,-0.403,-1.9187,-0.7397,-1.6105,9.2491,-0.3248,-1.4584,0.4025,-1.2843,-8.3032,2.2007,-1.0884,0.2034,-2.3905,0.3911,-8.2378,-2.2534,1.2634,-0.398106,0,1698651230,52
0.0384,0.5622,-0.3495,0.0931,-0.7056,-1.8949,-0.4786,-1.651,9.1984,-0.5947,-1.4774,0.464,-1.2895,-8.285,2.2651,-1.0464,0.3362,-1.6115,0.0502,-8.1452,-2.1765,1.2876,-0.373628,0,1698651230,53
0.0428,0.544,-0.3443,0.2167,-1.0574,-1.8883,-0.1862,-1.6453,9.1945,-0.6926,-1.3464,0.6234,-1.2143,-8.2639,2.2868,-1.0589,0.51,-0.6255,-0.3484,-8.0818,-2.0996,1.246,-0.281712,0,1698651230,54
0.0473,0.5072,-0.3382,0.3226,-1.1133,-1.9931,0.0783,-1.5586,9.1688,-0.5904,-1.1118,0.685,-1.1235,-8.2606,2.2501,-1.1213,0.7456,-0.2074,-0.5582,-8.1972,-2.132,1.3217,-0.207734,0,1698651230,55
0.0522,0.4804,-0.3312,0.3981,-1.0238,-2.0907,0.3068,-1.4132,8.7297,-0.2694,-0.8741,0.6391,-1.0751,-8.3032,2.1659,-1.1772,0.7948,0.3288,-0.8329,-8.266,-2.2091,1.4778,-0.173461,0,1698651230,55
0.0572,0.4919,-0.3235,0.4735,-0.9024,-2.1018,0.4928,-1.2637,8.4643,0.0286,-0.7262,0.5302,-1.052,-8.3743,2.1175,-1.2092,0.7452,0.6191,-1.0258,-8.2283,-2.2382,1.4787,-0.228521,0,1698651230,56
0.0623,0.5165,-0.3162,0.5506,-0.7696,-2.0916,0.6219,-1.0748,8.4586,0.1836,-0.5754,0.4532,-1.0042,-8.4743,2.1072,-1.2439,0.9291,-0.5513,-0.6302,-8.4713,-2.3068,1.5415,-0.265076,0,1698651230,57
0.0678,0.5273,-0.3095,0.5962,-0.5652,-2.0053,0.7043,-0.9423,8.4048,0.2848,-0.3749,0.3671,-0.9578,-8.6055,2.073,-1.3171,1.0677,-1.4748,-0.2573,-8.7165,-2.3136,1.6081,-0.219006,0,1698651230,58
0.0738,0.5324,-0.3037,0.5925,-0.2768,-1.836,0.7444,-0.8083,8.5551,0.3345,-0.1918,0.2396,-0.9362,-8.7577,2.0159,-1.4036,0.9163,-1.3528,-0.2719,-8.7239,-2.3029,1.4915,-0.168872,0,1698651231,59
0.0792,0.5211,-0.2995,0.5472,0.0452,-1.6832,0.7722,-0.6928,8.9129,0.3854,0.0007,0.1909,-0.893,-8.9603,2.0315,-1.4406,0.7356,-1.3901,-0.2969,-8.8753,-2.3161,1.4351,-0.122891,0,1698651231,59
0.084,0.4998,-0.2964,0.4831,0.3064,-1.4929,0.7887,-0.5975,9.1457,0.3929,0.2362,0.2016,-0.8006,-9.2033,2.1064,-1.4432,0.5195,-1.2554,-0.3989,-9.0383,-2.3158,1.4846,-0.099753,0,1698651231,60
0.0885,0.4866,-0.2941,0.4071,0.3874,-1.2625,0.7708,-0.5202,9.3236,0.3105,0.5496,0.1674,-0.6769,-9.3978,2.217,-1.4802,0.2936,-0.7477,-0.6563,-9.2197,-2.3339,1.5572,-0.159716,0,1698651231,61
0.0926,0.4515,-0.2931,0.3086,0.469,-1.0852,0.768,-0.5216,9.6422,0.1815,0.7742,0.191,-0.5356,-9.526,2.3047,-1.4827,0.1599,-0.0867,-0.9534,-9.4312,-2.355,1.53,-0.295706,0,1698651231,62
0.0958,0.3984,-0.2931,0.2267,0.6236,-0.9466,0.8135,-0.6203,9.8891,0.0322,0.78,0.0927,-0.4472,-9.683,2.3846,-1.3588,0.0297,0.0748,-1.0435,-9.5618,-2.3954,1.4562,-0.42538,0,1698651231,63
0.0981,0.3572,-0.2932,0.1804,0.7079,-0.7981,0.8915,-0.7742,10.0662,-0.2471,0.7223,-0.2368,-0.4544,-9.8594,2.4801,-1.2292,0.0154,-0.5028,-0.897,-9.6258,-2.4714,1.4304,-0.509262,0,1698651231,63
0.1005,0.3626,-0.2934,0.1418,0.7325,-0.6597,0.9588,-0.9357,10.189,-0.576,0.5325,-0.8004,-0.4906,-9.9919,2.542,-1.1533,0.0282,-0.804,-0.8642,-9.6619,-2.52,1.5424,-0.553089,0,1698651231,64
0.1041,0.3799,-0.2936,0.0969,0.7652,-0.5906,0.995,-1.1544,10.1126,-0.7823,0.2241,-1.3327,-0.4958,-10.0927,2.5703,-1.1166,-0.0283,-1.0422,-0.8541,-9.8118,-2.5775,1.7949,-0.580931,0,1698651231,65
0.1085,0.3781,-0.2939,0.0637,0.8903,-0.5872,1.0401,-1.4566,9.9281,-0.9185,0.0289,-1.5852,-0.4571,-10.2349,2.5636,-1.1158,-0.0023,-1.5656,-0.7747,-9.9768,-2.7246,2.0164,-0.516283,0,1698651231,66
0.1128,0.3691,-0.294,0.0622,1.1324,-0.6774,1.0896,-1.6943,10.0016,-0.9594,-0.0009,-1.9261,-0.3769,-10.4245,2.4922,-1.1348,0.1891,-1.9226,-0.8161,-10.0845,-2.9738,2.082,-0.370047,0,1698651231,66
0.1164,0.3727,-0.2939,0.0643,1.3332,-0.8574,1.0864,-1.8214,10.4208,-0.9283,0.0944,-2.2071,-0.2404,-10.6414,2.3843,-1.1169,0.4929,-2.1327,-0.9471,-10.1577,-3.2476,2.1063,-0.25207,0,1698651231,67
0.1197,0.3812,-0.2937,0.0716,1.3716,-1.0791,0.9977,-1.883,10.7825,-0.8632,0.3568,-2.3453,-0.0807,-10.8586,2.2399,-1.0904,0.8729,-2.4995,-1.0497,-10.172,-3.5037,2.1767,-0.166732,0,1698651231,68
0.1229,0.3756,-0.2935,0.0976,1.3954,-1.5469,0.8872,-1.8734,11.0103,-0.7066,0.7046,-2.5148,0.0306,-11.0498,2.0726,-1.0848,1.2712,-2.8082,-1.1805,-10.2179,-3.7305,2.2186,-0.108519,0,1698651231,69
0.1256,0.3471,-0.2924,0.1415,1.6977,-2.0007,0.814,-1.8924,11.4695,-0.4518,0.9585,-2.724,0.0923,-11.2359,1.9336,-1.0947,1.5703,-2.8827,-1.3725,-10.2891,-3.88,2.2238,-0.071225,0,1698651231,70
0.1269,0.283,-0.2895,0.2048,2.0415,-2.1545,0.7453,-1.8058,11.5414,-0.0214,1.0689,-2.907,0.1257,-11.396,1.8107,-1.175,1.7976,-2.9824,-1.5667,-10.3775,-4.007,2.2127,-0.045074,0,1698651231,70
0.1268,0.2129,-0.2851,0.2683,1.9618,-2.1863,0.438,-1.4353,11.4271,0.4684,1.1443,-2.9621,0.3588,-11.5195,1.72,-1.2852,2.0192,-3.2004,-1.4713,-10.5684,-4.1107,2.2027,-0.028662,0,1698651231,71
0.1258,0.1354,-0.2802,0.3155,1.9161,-2.164,0.166,-0.9665,11.4137,0.9684,1.2243,-2.9479,0.5117,-11.6315,1.657,-1.4016,2.0235,-3.3467,-1.3044,-10.7765,-4.1098,2.0995,-0.022227,0,1698651231,72
0.1234,0.0346,-0.2752,0.3524,2.1217,-2.0147,0.1662,-0.493,11.1116,1.4789,1.2522,-2.936,0.3688,-11.698,1.5771,-1.5345,1.8206,-3.3819,-1.2999,-10.921,-4.0136,1.8857,-0.017002,0,1698651231,73
0.1183,-0.1137,-0.2699,0.4019,2.2533,-1.6788,0.1773,-0.0459,11.0337,1.7872,1.2655,-2.8628,0.2238,-11.6159,1.4827,-1.643,1.5803,-3.2031,-1.2445,-10.9828,-3.8801,1.6547,-0.005816,0,1698651231,73
0.1096,-0.3545,-0.2652,0.4471,2.2371,-1.3413,0.1809,0.1955,11.2187,1.9227,1.2945,-2.6552,0.0821,-11.3453,1.4279,-1.7338,1.2037,-2.5494,-1.2091,-10.8305,-3.7407,1.4537,0.013225,0,1698651231,74
0.0978,-0.6355,-0.2609,0.4899,2.0532,-1.1029,0.1572,0.255,11.2438,2.0159,1.3409,-2.3541,-0.0517,-10.9341,1.3863,-1.7941,0.8515,-1.729,-1.1518,-10.4557,-3.5893,1.2526,0.038547,0,1698651231,75
0.0833,-0.8407,-0.2561,0.5434,1.8541,-0.9434,0.1482,0.1572,10.93,2.2024,1.3872,-2.0359,-0.1702,-10.4319,1.2872,-1.8265,0.6708,-0.9852,-1.0289,-10.0157,-3.441,1.0673,0.065955,0,1698651231,76
0.0664,-1.0336,-0.2501,0.573,1.7344,-0.7888,0.2341,-0.026,10.6395,2.2666,1.4427,-1.6379,-0.2528,-9.8823,1.1092,-1.8343,0.5526,-0.5106,-0.8133,-9.6135,-3.3811,1.0653,0.091347,0,1698651231,77
0.0479,-1.2528,-0.2436,0.585,1.6695,-0.6857,0.3775,-0.2661,10.4889,2.1769,1.5608,-1.2163,-0.2957,-9.3311,0.8659,-1.8251,0.3765,0.0251,-0.6594,-9.1598,-3.3784,1.1032,0.114255,0,1698651231,77
0.0286,-1.3978,-0.2367,0.6163,1.6004,-0.6031,0.5273,-0.564,10.265,2.0479,1.7634,-0.8982,-0.306,-8.8338,0.5775,-1.8121,0.0726,0.7803,-0.6933,-8.6109,-3.4223,0.9991,0.09585,0,1698651231,78
0.0091,-1.492,-0.2289,0.6595,1.4973,-0.5304,0.6555,-0.8187,10.0115,1.8847,1.9931,-0.7082,-0.2817,-8.4258,0.2757,-1.778,-0.2895,1.5263,-0.8662,-8.0183,-3.5323,0.7985,-0.019316,0,1698651231,79
-0.0104,-1.5776,-0.2203,0.7224,1.3184,-0.5899,0.7014,-1.0232,9.7986,1.7696,2.2542,-0.651,-0.2295,-8.1226,-0.0274,-1.7611,-0.2871,2.0955,-1.0133,-7.5609,-3.7701,0.5339,-0.204694,0,1698651231,80
-0.03,-1.6362,-0.2111,0.7722,1.1521,-0.7289,0.6758,-1.2119,9.6449,1.6647,2.5312,-0.6866,-0.1626,-7.9627,-0.2981,-1.7528,0.0285,2.2922,-0.9878,-7.1862,-4.0387,0.3038,-0.325986,0,1698651231,80
-0.0491,-1.7154,-0.2016,0.7834,0.9557,-0.9043,0.557,-1.2944,9.6852,1.5175,2.7224,-0.8379,-0.1131,-7.9443,-0.4795,-1.7391,0.4713,2.3265,-1.008,-6.9713,-4.2514,0.1761,-0.374939,0,1698651231,81
-0.0675,-1.7943,-0.1919,0.7891,0.7298,-1.1308,0.3488,-1.2719,9.8332,1.4013,2.8079,-1.0857,-0.1114,-8.026,-0.553,-1.7063,0.7189,2.8252,-1.2547,-7.0291,-4.3537,0.3017,-0.414065,0,1698651231,82
-0.0851,-1.8369,-0.1826,0.7784,0.5432,-1.3741,0.1325,-1.1886,9.9573,1.3875,2.8249,-1.3337,-0.1287,-8.1731,-0.526,-1.6239,1.0587,2.7559,-1.3244,-7.177,-4.3939,0.404,-0.395887,0,1698651231,83
-0.1023,-1.8404,-0.1735,0.7903,0.3379,-1.5783,-0.0627,-1.005,10.0173,1.4236,2.8645,-1.5458,-0.1388,-8.3793,-0.3959,-1.5328,1.7214,1.9171,-1.2004,-7.399,-4.4214,0.3371,-0.309037,0,1698651231,84
-0.1201,-1.8444,-0.1645,0.8415,0.1937,-1.72,-0.1947,-0.7675,10.1152,1.4922,2.9601,-1.6143,-0.1228,-8.6445,-0.1743,-1.4448,2.0615,1.5281,-1.1826,-7.7128,-4.3295,0.3898,-0.206663,0,1698651231,84
-0.1384,-1.845,-0.1557,0.8893,0.0927,-1.795,-0.2248,-0.4874,10.1924,1.5717,3.047,-1.4783,-0.0899,-8.9427,0.0929,-1.3366,2.1322,1.2107,-1.1261,-8.1132,-4.1928,0.4543,-0.126482,0,1698651231,85
-0.1566,-1.7954,-0.147,0.9293,-0.0496,-1.7605,-0.1468,-0.223,10.2734,1.6449,3.0788,-1.1955,-0.0635,-9.1917,0.339,-1.2453,1.9987,1.0552,-1.0635,-8.4643,-4.0041,0.4775,-0.064425,0,1698651231,86
-0.1743,-1.7795,-0.1385,0.9324,-0.1925,-1.5981,0.0245,0.0352,10.1305,1.6857,3.014,-0.7925,-0.0575,-9.333,0.5694,-1.1525,1.6625,0.9396,-0.9978,-8.737,-3.7811,0.516,-0.008787,0,1698651231,87
-0.1912,-1.7883,-0.1303,0.8954,-0.3128,-1.3749,0.2531,0.2856,9.8779,1.6875,2.875,-0.3662,-0.0809,-9.3946,0.7866,-1.1068,1.2121,1.0007,-0.8879,-8.9111,-3.5918,0.5328,0.073828,0,1698651231,88
-0.2072,-1.7519,-0.1224,0.8524,-0.4583,-1.1103,0.5073,0.5097,9.8108,1.6828,2.6597,0.0101,-0.1068,-9.385,0.9238,-1.1339,0.7881,1.4767,-0.7779,-8.9921,-3.4785,0.5122,0.189378,0,1698651231,88
-0.2221,-1.6662,-0.1145,0.8337,-0.4836,-0.8477,0.7866,0.6327,9.6745,1.7272,2.4294,0.3586,-0.1065,-9.3215,0.968,-1.151,0.4316,2.0101,-0.6865,-8.9917,-3.4209,0.4823,0.293806,0,1698651231,89
-0.236,-1.5605,-0.1068,0.8489,-0.3813,-0.5559,1.0921,0.7071,9.5218,1.7042,2.3511,0.585,-0.1224,-9.1962,0.9049,-1.2137,0.1341,2.6196,-0.6147,-8.8892,-3.4288,0.4187,0.320796,0,1698651231,90
-0.2486,-1.4553,-0.0988,0.8495,-0.2763,-0.1998,1.3832,0.7828,9.3254,1.6324,2.2766,0.6586,-0.1791,-9.0272,0.8221,-1.2041,-0.1753,3.1773,-0.5094,-8.7172,-3.4008,0.48,0.274061,0,1698651231,91
-0.2597,-1.3595,-0.0909,0.8463,-0.176,0.1817,1.6424,0.8216,9.2125,1.5143,2.1012,0.6612,-0.2171,-8.8714,0.7616,-1.1298,-0.3738,3.6787,-0.4362,-8.5603,-3.3341,0.5971,0.22976,0,1698651231,91
-0.2693,-1.2546,-0.0831,0.8478,-0.058,0.5546,1.8787,0.8295,9.0948,1.4141,1.9871,0.6377,-0.2254,-8.737,0.7108,-1.0753,-0.5093,3.9045,-0.3546,-8.3879,-3.4181,0.5429,0.30283,0,1698651231,92
-0.2778,-1.1464,-0.0752,0.8468,0.0481,0.887,2.0615,0.8638,8.9644,1.38,1.9615,0.6356,-0.2028,-8.6115,0.7032,-0.9919,-0.704,4.3092,-0.3006,-8.25,-3.4566,0.5259,0.457535,0,1698651231,93
-0.2852,-1.0504,-0.0677,0.8258,0.0478,1.1604,2.1778,0.9299,9.0093,1.2665,1.9416,0.5538,-0.1802,-8.4512,0.7302,-0.9188,-0.9882,4.5076,-0.3533,-8.0838,-3.4387,0.5448,0.578056,0,1698651231,94
-0.2917,-0.9411,-0.0603,0.773,-0.0035,1.3779,2.2793,0.8562,9.1246,1.1018,1.8555,0.4333,-0.1566,-8.2933,0.8062,-0.8425,-1.3308,4.0319,-0.2817,-7.9321,-3.4793,0.6009,0.668854,0,1698651231,95
-0.2974,-0.8341,-0.0531,0.7356,-0.0911,1.5861,2.3529,0.761,9.2789,0.8822,1.7016,0.3626,-0.1324,-8.1934,0.9015,-0.7594,-1.6625,3.7519,-0.169,-7.8211,-3.5001,0.7174,0.728383,0,1698651231,95
-0.3021,-0.7457,-0.0464,0.7146,-0.2579,1.7273,2.3582,0.7389,9.3297,0.7499,1.5182,0.2856,-0.1425,-8.1585,0.9735,-0.6909,-1.9543,4.0722,-0.2237,-7.759,-3.4901,0.859,0.749534,0,1698651231,96
-0.3057,-0.6645,-0.04,0.6836,-0.414,1.7901,2.2915,0.7335,9.3142,0.71,1.3153,0.2292,-0.1572,-8.1822,1.0131,-0.6144,-1.9423,4.1812,-0.3967,-7.7575,-3.5197,0.8594,0.767165,0,1698651231,97
-0.3085,-0.5795,-0.0344,0.6403,-0.3622,1.8781,2.1486,0.8108,9.3839,0.5498,1.1457,0.2254,-0.0996,-8.2194,1.0029,-0.5291,-1.8409,4.0605,-0.485,-7.728,-3.5976,0.7445,0.806757,0,1698651231,98
-0.3108,-0.5021,-0.0299,0.5902,-0.431,1.9618,1.9293,0.8655,9.5353,0.3509,1.0634,0.26,0.0449,-8.268,0.9833,-0.4861,-1.8091,4.3561,-0.5075,-7.6722,-3.6537,0.6344,0.84748,0,1698651231,98
-0.3121,-0.4177,-0.0259,0.54,-0.7061,1.9893,1.6551,0.8428,9.7034,0.219,1.0216,0.2399,0.1596,-8.3421,0.9619,-0.4582,-1.6625,4.4,-0.6052,-7.5707,-3.6856,0.4067,0.881255,0,1698651231,99
-0.3126,-0.3241,-0.022,0.4991,-0.9027,1.9851,1.3483,0.7925,9.7269,0.184,0.9389,0.1153,0.1772,-8.4373,0.9046,-0.4075,-1.4191,4.0771,-0.5719,-7.5674,-3.7486,0.2726,0.907464,0,1698651231,0
-0.3125,-0.2432,-0.0189,0.4563,-1.115,1.9921,1.0035,0.761,9.7012,0.1568,0.8414,0.0219,-0.052,-8.5247,0.8112,-0.347,-1.1576,3.7018,-0.4404,-7.5918,-3.8902,0.2366,0.927628,0,1698651231,1
-0.3124,-0.1807,-0.0167,0.397,-1.366,1.954,0.607,0.7381,9.6856,0.1124,0.7964,0.0261,-0.1977,-8.6085,0.6978,-0.2845,-0.8547,3.3609,-0.3502,-7.5782,-4.0232,0.1995,0.943031,0,1698651231,2
-0.3123,-0.1471,-0.0149,0.3414,-1.6931,1.8597,0.1746,0.6756,9.6117,0.0528,0.7819,0.0438,-0.0842,-8.7039,0.6118,-0.2007,-0.4781,2.9231,-0.2384,-7.55,-4.1359,0.1769,0.952516,0,1698651231,2
-0.3121,-0.1196,-0.0129,0.3125,-1.936,1.7506,-0.2414,0.5721,9.5222,-0.0357,0.7765,0.0797,0.0049,-8.7862,0.5552,-0.1115,-0.096,2.5021,-0.1456,-7.5359,-4.2199,0.1684,0.954979,0,1698651231,3
-0.3118,-0.0846,-0.0101,0.3305,-2.0174,1.6046,-0.5926,0.4024,9.3223,-0.0735,0.7682,0.1255,0.0851,-8.836,0.554,-0.0291,0.2271,2.1069,-0.0778,-7.5601,-4.2566,0.1664,0.950631,0,1698651231,4
-0.3111,-0.0473,-0.0059,0.3679,-2.1002,1.4451,-0.8926,0.2404,9.0745,-0.0416,0.7753,0.1202,0.1201,-8.8715,0.5844,-0.0074,0.4977,1.7198,-0.0225,-7.6218,-4.2758,0.1495,0.928767,0,1698651231,5
-0.3092,0.0138,-0.001,0.3805,-2.1764,1.2965,-1.1683,0.1194,8.8546,0.0254,0.7544,0.0649,0.1065,-8.9175,0.6018,-0.0504,0.7131,1.3297,0.0409,-7.7455,-4.2799,0.1675,0.831014,0,1698651231,5
-0.3056,0.0912,0.0035,0.3906,-2.1879,1.1257,-1.4131,-0.0286,8.7513,0.0611,0.6674,-0.0062,0.0907,-8.9471,0.6174,-0.0886,0.8232,0.8648,0.1412,-7.9039,-4.2431,0.2052,0.684244,0,1698651231,6
-0.3002,0.1825,0.0076,0.4069,-2.0553,0.9113,-1.6075,-0.1596,8.7882,0.1255,0.5811,-0.0494,0.0955,-8.965,0.6307,-0.1065,0.8303,0.4415,0.2149,-8.0572,-4.2096,0.2804,0.562945,0,1698651231,7
-0.2936,0.2968,0.0122,0.4355,-1.7282,0.7455,-1.6784,-0.213,8.7714,0.2375,0.5064,-0.095,0.1223,-9.0019,0.6252,-0.1188,0.7234,0.1101,0.2696,-8.2027,-4.1954,0.3696,0.46521,0,1698651231,8
-0.2871,0.4012,0.018,0.4731,-1.314,0.6339,-1.5997,-0.1956,8.7471,0.3467,0.491,-0.1056,0.184,-9.0907,0.611,-0.158,0.4725,-0.1379,0.3018,-8.3213,-4.1994,0.3839,0.388886,0,1698651231,8
-0.281,0.4747,0.024,0.5139,-0.8976,0.5326,-1.438,-0.1159,8.7791,0.4555,0.5515,-0.0406,0.2685,-9.2425,0.6171,-0.2155,0.1659,-0.2752,0.2945,-8.4407,-4.2321,0.3489,0.332884,0,1698651231,9
-0.2754,0.4975,0.0294,0.5511,-0.5683,0.4676,-1.2604,-0.043,8.9771,0.4936,0.6223,0.0329,0.3513,-9.4106,0.6331,-0.2826,-0.0986,-0.3451,0.3024,-8.5866,-4.2853,0.3026,0.293801,0,1698651231,10
-0.2704,0.4731,0.0344,0.5528,-0.2954,0.4393,-1.0892,-0.0179,9.2968,0.4649,0.61,-0.1674,0.4206,-9.5584,0.6578,-0.3547,-0.299,-0.2759,0.2949,-8.7205,-4.3453,0.2583,0.26711,0,1698651231,11
-0.2665,0.4299,0.0382,0.5114,-0.0664,0.4326,-0.9256,0.0032,9.5965,0.4463,0.5331,-0.3732,0.4779,-9.6779,0.7083,-0.4174,-0.4103,-0.0304,0.2482,-8.8329,-4.3816,0.2161,0.250236,0,1698651231,11
-0.264,0.3625,0.0403,0.4353,0.0024,0.4326,-0.7908,0.0835,9.8218,0.3846,0.464,-0.32,0.5394,-9.7491,0.7589,-0.452,-0.4388,0.2967,0.1872,-8.9078,-4.3883,0.189,0.242182,0,1698651231,12
-0.2625,0.283,0.0418,0.3686,0.0132,0.4419,-0.6785,0.1568,9.9463,0.2704,0.3874,-0.2574,0.6094,-9.7625,0.8007,-0.4585,-0.3612,0.7492,0.1126,-9.055,-4.4491,0.2398,0.24853,0,1698651231,13
-0.2623,0.2088,0.043,0.3169,0.0685,0.4909,-0.5853,0.2183,9.9096,0.0894,0.2954,-0.1977,0.6765,-9.7611,0.8473,-0.4425,-0.2796,0.892,0.2353,-9.1926,-4.467,0.3517,0.267762,0,1698651231,14
-0.2625,0.1522,0.0445,0.2875,0.1191,0.5784,-0.5026,0.3323,9.8073,-0.1495,0.1925,-0.1752,0.7397,-9.7667,0.8913,-0.4108,-0.1941,0.7055,0.455,-9.1934,-4.4258,0.3809,0.297498,0,1698651231,14
-0.2625,0.1193,0.0467,0.2901,0.2035,0.7034,-0.4222,0.4701,9.6384,-0.3596,0.0861,-0.2037,0.8033,-9.7922,0.9286,-0.3714,-0.0911,0.7711,0.5225,-9.2191,-4.447,0.4086,0.280384,0,1698651231,15
-0.2625,0.0991,0.0504,0.3164,0.3578,0.8466,-0.3675,0.6385,9.381,-0.4619,-0.0289,-0.3145,0.8791,-9.8667,0.9879,-0.335,-0.115,1.0666,0.5068,-9.3147,-4.472,0.5823,0.144128,0,1698651231,16
-0.2625,0.0776,0.0553,0.3577,0.5619,0.7711,-0.3249,0.7726,9.3692,-0.4702,-0.1838,-0.5267,0.9994,-10.0294,1.1132,-0.2896,-0.0978,0.9851,0.5116,-9.5058,-4.4412,0.6014,-0.008081,0,1698651231,17
-0.2618,0.0751,0.0601,0.3566,0.9063,0.7193,-0.2127,0.7578,9.9307,-0.5697,-0.4022,-0.7938,1.1703,-10.2184,1.2742,-0.2346,-0.1305,1.1792,0.3484,-9.651,-4.4159,0.3859,-0.104631,0,1698651231,17
-0.259,0.162,0.0635,0.3347,1.2223,1.0217,-0.053,0.6471,10.5186,-0.6497,-0.6434,-1.0464,1.3559,-10.333,1.4982,-0.1488,-0.4012,1.5958,0.2215,-9.7277,-4.3767,0.3973,-0.234141,0,1698651231,18
-0.253,0.3205,0.0654,0.2928,1.1321,1.4168,0.0131,0.6499,10.6075,-0.6121,-0.8878,-1.2357,1.5521,-10.3994,1.7539,-0.0779,-0.4786,1.2862,0.3105,-9.8476,-4.3113,0.4762,-0.386526,0,1698651231,19
-0.2437,0.4744,0.0658,0.2413,0.7398,1.6622,-0.0226,0.6189,10.7033,-0.4474,-1.185,-1.405,1.7402,-10.4784,1.9389,-0.1321,-0.3853,1.1224,0.1939,-9.9676,-4.3011,0.3918,-0.503437,0,1698651231,20
-0.2319,0.6119,0.0655,0.1825,0.586,1.7737,-0.0212,0.4353,10.8526,-0.1062,-1.565,-1.6132,1.8753,-10.5978,2.0764,-0.221,-0.5498,1.2228,0.0231,-10.1767,-4.2443,0.3273,-0.569929,0,1698651231,20
-0.219,0.7151,0.0653,0.1114,0.6173,1.8773,0.048,0.2144,11.0024,0.2527,-1.9309,-1.7723,1.9563,-10.7205,2.0801,-0.3347,-0.8667,0.8703,0.0064,-10.4137,-4.1056,0.0519,-0.536159,0,1698651231,21
-0.2062,0.7861,0.0649,0.0721,0.6638,1.9833,0.1579,-0.0107,11.0333,0.6033,-2.1734,-1.8252,1.9809,-10.8275,1.9739,-0.4631,-1.1367,0.4015,0.0361,-10.484,-4.067,-0.3032,-0.368773,0,1698651231,22
-0.1947,0.8391,0.0634,-0.0036,0.8533,2.1926,0.2903,-0.3592,10.4733,1.1747,-2.2722,-1.7444,1.9506,-10.9495,1.8094,-0.5527,-1.332,0.0731,-0.0278,-10.392,-4.1338,-0.4733,-0.159581,0,1698651231,23
-0.1852,0.836,0.0589,-0.1519,1.0253,2.2496,0.4203,-0.631,10.1781,1.5218,-2.2075,-1.547,1.8129,-11.0484,1.5803,-0.7383,-1.4248,-0.6107,-0.1184,-10.3546,-4.2558,-0.6253,-0.013114,0,1698651231,23
-0.1779,0.7986,0.0508,-0.3143,1.181,2.016,0.5613,-0.9058,10.4964,1.5818,-2.1658,-1.3698,1.5917,-11.0291,1.401,-0.8917,-1.4799,-1.1094,-0.1555,-10.2175,-4.4111,-0.8134,0.068137,0,1698651231,24
-0.1728,0.7137,0.0398,-0.5171,1.3095,1.7672,0.6709,-1.2378,10.7838,1.6715,-2.1674,-1.0856,1.3867,-10.9213,1.3031,-0.9059,-1.4153,-1.4439,-0.0837,-10.0175,-4.422,-0.9533,0.116041,0,1698651231,25
-0.1704,0.5764,0.0279,-0.7189,1.3924,1.5552,0.7279,-1.3076,10.9121,1.6559,-2.104,-0.7575,1.3859,-10.7587,1.2833,-0.9386,-1.2228,-1.9815,0.041,-9.8574,-4.2991,-1.0607,0.149183,0,1698651231,26
-0.1699,0.4539,0.0149,-0.867,1.4499,1.4451,0.7679,-1.0819,10.4783,1.748,-2.099,-0.4873,1.3027,-10.5074,1.2927,-1.0009,-1.1423,-2.4656,0.1311,-9.5812,-4.034,-1.1865,0.168286,0,1698651231,27
-0.1697,0.3643,-0.0003,-0.9938,1.3847,1.3443,0.8066,-0.7142,10.1871,1.788,-2.1164,-0.1351,0.9704,-10.1603,1.3372,-1.0262,-1.1949,-2.7214,0.2122,-9.2474,-3.6744,-1.2167,0.177685,0,1698651231,27
-0.1687,0.3067,-0.0172,-1.1179,1.3297,1.2336,0.8086,-0.6004,10.2786,1.5919,-2.13,0.2655,0.6885,-9.6954,1.472,-1.0384,-1.4351,-2.4821,0.2674,-8.8708,-3.3523,-1.2075,0.25016,0,1698651231,28
-0.1663,0.3104,-0.0358,-1.235,1.1286,1.2225,0.7342,-0.4661,10.0413,1.4725,-2.2087,0.6729,0.4627,-9.1921,1.6544,-1.1124,-1.7171,-2.0738,0.2993,-8.5503,-3.0164,-1.3161,0.391808,0,1698651231,29
-0.1619,0.3687,-0.0553,-1.328,0.7754,1.1791,0.6194,-0.1701,9.8126,1.5152,-2.378,1.0541,0.2907,-8.7351,1.8234,-1.2596,-1.8646,-1.7183,0.3496,-8.386,-2.7148,-1.3865,0.514461,0,1698651231,30
-0.1558,0.4341,-0.0752,-1.4553,0.646,1.089,0.5123,-0.0255,9.6013,1.5516,-2.6911,1.3058,0.1537,-8.3746,1.9825,-1.4634,-1.9306,-1.5726,0.416,-8.3071,-2.5022,-1.3664,0.60317,0,1698651231,30
-0.1487,0.4971,-0.0946,-1.5716,0.5958,1.0992,0.4198,0.0769,9.3394,1.5264,-3.074,1.3685,0.0508,-8.156,2.1076,-1.6547,-1.8369,-1.8207,0.4769,-8.2549,-2.3579,-1.3762,0.677784,0,1698651231,31
-0.141,0.5475,-0.1132,-1.6319,0.4443,1.229,0.3292,0.253,9.2663,1.4331,-3.4072,1.2782,-0.0028,-8.0726,2.1647,-1.8,-1.6313,-2.1779,0.5463,-8.2707,-2.3081,-1.3688,0.744706,0,1698651231,32
-0.1328,0.5867,-0.1313,-1.7131,0.267,1.3656,0.2332,0.3288,9.3197,1.3825,-3.6771,1.0624,-0.0214,-8.1443,2.1896,-1.8854,-1.4434,-2.4281,0.6173,-8.3533,-2.3432,-1.2482,0.799851,0,1698651231,33
-0.1243,0.6224,-0.149,-1.7349,0.0645,1.4597,0.0845,0.315,9.4986,1.3777,-3.8475,0.8087,-0.018,-8.3543,2.1829,-1.8517,-1.3188,-2.6292,0.727,-8.4853,-2.4891,-1.0205,0.843424,0,1698651231,33
-0.1156,0.6443,-0.1664,-1.693,-0.144,1.5508,-0.1298,0.2316,9.8305,1.3617,-3.8981,0.655,0,-8.6588,2.1174,-1.7245,-1.2714,-2.7164,0.8455,-8.6151,-2.7425,-0.8076,0.877108,0,1698651231,34
-0.1066,0.676,-0.1836,-1.7072,-0.345,1.6377,-0.3789,0.0093,10.2577,1.3118,-3.911,0.5954,0.0362,-9.0201,2.0226,-1.5378,-1.2934,-2.4177,0.8096,-8.7304,-3.0265,-0.5971,0.901117,0,1698651231,35
-0.0976,0.7258,-0.2001,-1.6947,-0.4441,1.6966,-0.6449,-0.3287,10.6214,1.2814,-3.8954,0.5303,0.0932,-9.386,1.9114,-1.3246,-1.4119,-2.1363,0.717,-8.8271,-3.2628,-0.3972,0.91015,0,1698651232,36
-0.0885,0.7724,-0.2157,-1.6543,-0.4206,1.7254,-0.9213,-0.6509,10.6601,1.2887,-3.7597,0.4738,0.1631,-9.702,1.7763,-1.2018,-1.4298,-2.1665,0.7482,-8.9624,-3.4867,-0.2706,0.892698,0,1698651232,36
-0.0795,0.8044,-0.2302,-1.5962,-0.3477,1.7162,-1.2008,-0.8821,10.5375,1.2533,-3.4916,0.4452,0.2455,-9.921,1.6168,-1.1911,-1.2443,-2.1781,0.7937,-9.1111,-3.6379,-0.2366,0.851729,0,1698651232,37
-0.0706,0.8196,-0.2438,-1.5295,-0.2519,1.6221,-1.4725,-1.1142,10.4779,1.2364,-3.1725,0.5176,0.3206,-9.9938,1.4804,-1.2392,-1.0065,-2.1828,0.9254,-9.1311,-3.6664,-0.2308,0.7487,0,1698651232,38
-0.0621,0.8349,-0.2562,-1.4763,-0.2082,1.4571,-1.7533,-1.3323,10.3709,1.2175,-2.831,0.6804,0.3559,-9.9025,1.3809,-1.3325,-0.6582,-2.2282,1.2714,-9.0636,-3.6476,-0.1547,0.604975,0,1698651232,39
-0.0542,0.8151,-0.2679,-1.4142,-0.0907,1.253,-1.9962,-1.586,10.2402,1.1846,-2.4609,0.8784,0.3015,-9.6945,1.2948,-1.426,-0.2044,-2.4919,1.7378,-8.9929,-3.5873,-0.0536,0.486197,0,1698651232,39
-0.0472,0.7654,-0.2789,-1.3244,0.0014,0.9845,-2.213,-1.8351,10.055,1.1504,-2.1418,1.0978,0.1502,-9.4659,1.2565,-1.4617,0.166,-3.0316,2.2586,-8.879,-3.519,0.0335,0.386187,0,1698651232,40
-0.0406,0.7372,-0.289,-1.227,-0.0114,0.6414,-2.4137,-1.9901,9.8268,1.1258,-1.8813,1.3117,-0.021,-9.2541,1.2746,-1.4457,0.3335,-4.1478,2.8481,-8.7787,-3.4209,0.1134,0.303802,0,1698651232,41
-0.035,0.6956,-0.2985,-1.1539,0.051,0.2487,-2.5509,-2.1846,9.6543,1.0671,-1.6712,1.506,-0.1515,-9.0639,1.3319,-1.384,0.4074,-4.8862,3.4389,-8.7214,-3.3176,0.0843,0.238889,0,1698651232,42
-0.0303,0.6311,-0.3076,-1.0849,0.1124,-0.1415,-2.6515,-2.3562,9.5406,0.9154,-1.4893,1.6807,-0.2502,-8.8839,1.3695,-1.3156,0.5636,-4.8419,3.4844,-8.6451,-3.2447,-0.0219,0.188469,0,1698651232,42
-0.0256,0.5749,-0.3161,-1.016,0.1165,-0.5375,-2.7458,-2.4735,9.2893,0.8342,-1.2841,1.8531,-0.3269,-8.7029,1.3581,-1.2522,0.9244,-4.7163,3.0383,-8.5976,-3.2254,0.0993,0.149445,0,1698651232,43
-0.0214,0.5293,-0.3239,-0.94,0.1888,-0.9924,-2.8182,-2.5782,9.2042,0.8083,-1.0787,1.8983,-0.3916,-8.5724,1.3334,-1.1857,1.1646,-4.3588,2.6467,-8.5118,-3.2222,0.3056,0.12045,0,1698651232,44
-0.0183,0.4828,-0.3307,-0.8568,0.1742,-1.449,-2.8421,-2.636,9.2573,0.7321,-0.9132,1.7673,-0.4649,-8.481,1.317,-1.1612,0.8799,-3.9755,2.3075,-8.3393,-3.1705,0.4167,0.09775,0,1698651232,45
-0.0162,0.4235,-0.3359,-0.7525,0.1185,-1.87,-2.8146,-2.6795,9.0844,0.6873,-0.7471,1.6272,-0.509,-8.3972,1.2895,-1.17,0.7048,-3.6522,1.9666,-8.1823,-3.1042,0.5749,0.012749,0,1698651232,45
-0.0141,0.3892,-0.3401,-0.6585,0.1076,-2.2593,-2.7642,-2.6062,9.0368,0.5977,-0.5329,1.5882,-0.5194,-8.3433,1.2957,-1.1632,0.8432,-3.3866,1.6105,-8.0457,-3.0065,0.6799,-0.135115,0,1698651232,46
-0.0111,0.3803,-0.3438,-0.5872,0.0651,-2.5855,-2.6894,-2.4904,8.9712,0.4909,-0.2762,1.633,-0.5437,-8.3383,1.3486,-1.1638,0.9303,-3.3098,1.4226,-8.0074,-2.8891,0.7475,-0.275893,0,1698651232,47
-0.0074,0.3772,-0.3467,-0.506,0.0722,-2.7963,-2.552,-2.388,8.732,0.4155,-0.0393,1.6941,-0.6188,-8.3368,1.3819,-1.1983,0.9902,-3.1743,1.2341,-8.0344,-2.7934,0.7982,-0.398414,0,1698651232,48
-0.0036,0.3799,-0.3481,-0.4044,0.1185,-2.9404,-2.343,-2.179,8.6209,0.2652,0.1327,1.8184,-0.7146,-8.3154,1.3958,-1.1999,0.9635,-2.8969,0.9939,-8.0326,-2.6793,0.8603,-0.497897,0,1698651232,48
0,0.3659,-0.3482,-0.3112,0.1827,-3.0872,-2.0946,-1.9143,8.6906,0.128,0.286,1.931,-0.7686,-8.292,1.4779,-1.184,0.918,-2.6721,0.8601,-8.0895,-2.5575,1.0218,-0.572235,0,1698651232,49
0.0039,0.3732,-0.3481,-0.2509,0.0569,-3.157,-1.865,-1.6652,8.8103,-0.0508,0.3786,1.8438,-0.762,-8.2429,1.6599,-1.1565,0.9338,-2.5171,0.7716,-8.2067,-2.4612,1.1871,-0.606048,0,1698651232,50
0.0089,0.4254,-0.348,-0.2049,-0.1745,-3.1942,-1.6713,-1.4329,8.8177,-0.1435,0.2946,1.7582,-0.7329,-8.1748,1.88,-1.099,0.9555,-2.2544,0.6807,-8.2485,-2.324,1.2631,-0.574396,0,1698651232,51
0.0149,0.4717,-0.3475,-0.1477,-0.1847,-3.2537,-1.4425,-1.2466,8.7147,-0.0912,0.0845,1.5656,-0.6737,-8.1174,2.063,-1.0749,0.9586,-1.7333,0.5777,-8.2511,-2.17,1.324,-0.485429,0,1698651232,52
0.0208,0.4774,-0.3463,-0.0825,-0.1662,-3.2769,-1.165,-1.0789,8.6723,-0.077,-0.1154,1.22,-0.6303,-8.1128,2.2124,-1.0934,0.9279,-1.0346,0.455,-8.2413,-2.0542,1.4475,-0.409161,0,1698651232,52
0.0262,0.4973,-0.3438,0.0025,-0.4203,-3.2021,-0.9061,-0.8637,8.8583,-0.0994,-0.251,1.0461,-0.6298,-8.1609,2.3701,-1.0641,0.9747,-0.4382,0.3214,-8.1906,-1.9808,1.4979,-0.356531,0,1698651232,53
0.0315,0.5105,-0.3398,0.1155,-0.7847,-3.1124,-0.6436,-0.7235,8.8775,-0.0061,-0.2507,1.0764,-0.5536,-8.2049,2.4691,-0.9933,1.1491,-0.0917,0.2322,-8.2272,-1.962,1.5283,-0.28256,0,1698651232,54
0.0362,0.4734,-0.3338,0.2442,-1.0779,-3.0394,-0.346,-0.6387,8.67,0.1198,-0.1593,1.0377,-0.4203,-8.2461,2.4971,-0.9798,1.3153,-0.0347,0.2523,-8.3591,-2.0089,1.6663,-0.204159,0,1698651232,55
0.0403,0.4459,-0.3264,0.3564,-1.1881,-2.9519,-0.0347,-0.634,8.7261,0.1727,-0.165,0.9804,-0.3039,-8.3072,2.514,-0.9481,1.4691,-0.3552,0.4017,-8.4593,-2.0541,1.8139,-0.143782,0,1698651232,55
0.0446,0.4532,-0.3187,0.4498,-1.2421,-2.8116,0.2395,-0.6317,8.748,0.2255,-0.1847,0.9819,-0.2025,-8.4196,2.4817,-0.9024,1.5928,-0.4064,0.4582,-8.4704,-2.0462,1.9913,-0.098638,0,1698651232,56
0.0494,0.4725,-0.3111,0.54,-1.2875,-2.6498,0.4635,-0.6296,8.6073,0.3141,0.0198,1.0333,-0.1049,-8.5475,2.4136,-0.9246,1.9573,-0.0772,0.3367,-8.4731,-2.038,2.1545,-0.064023,0,1698651232,57
0.0542,0.4658,-0.3044,0.5734,-1.1702,-2.5113,0.6401,-0.6839,8.6218,0.4364,0.3073,1.0886,-0.0368,-8.6605,2.3364,-0.9801,2.1441,0.2816,0.2457,-8.5557,-2.15,2.2296,-0.034555,0,1698651232,58
0.0586,0.4526,-0.2993,0.5569,-1.0373,-2.3193,0.7636,-0.7579,8.759,0.4865,0.4761,0.9995,-0.0231,-8.7897,2.2564,-1.047,1.8444,0.2952,0.2091,-8.6252,-2.2578,2.3163,-0.007844,0,1698651232,58
0.0627,0.4451,-0.2953,0.5293,-0.883,-2.1021,0.8442,-0.8618,8.7992,0.5179,0.5732,0.9481,-0.0423,-8.921,2.2041,-1.0826,1.5162,0.028,0.1432,-8.6045,-2.2638,2.3289,0.012142,0,1698651232,59
0.0669,0.4304,-0.2917,0.5007,-0.718,-1.9163,0.8727,-0.8196,8.7463,0.6048,0.7227,0.9602,-0.0794,-9.0522,2.1613,-1.1176,1.2416,-0.1232,0.0844,-8.592,-2.2903,2.1692,0.024792,0,1698651232,60
0.0715,0.4297,-0.2894,0.4471,-0.5284,-1.7541,0.8659,-0.7085,8.7907,0.6667,0.9129,0.9424,-0.132,-9.1805,2.1348,-1.1527,0.9798,-0.055,-0.0287,-8.6504,-2.2944,1.9321,-0.006642,0,1698651232,61
0.0758,0.4195,-0.2885,0.3548,-0.2977,-1.5881,0.8341,-0.6257,9.0078,0.6181,1.0454,0.8586,-0.213,-9.2941,2.1677,-1.1653,0.7219,0.0458,-0.1352,-8.7912,-2.289,1.7434,-0.127077,0,1698651232,61
0.0794,0.4022,-0.2886,0.2734,-0.1278,-1.4259,0.8189,-0.5643,9.2589,0.5033,1.0733,0.7262,-0.3329,-9.3898,2.2721,-1.162,0.5761,0.0618,-0.1865,-8.9564,-2.2912,1.6054,-0.279348,0,1698651232,62
0.0827,0.4046,-0.2887,0.2112,-0.0249,-1.2487,0.8275,-0.5559,9.4746,0.2979,0.9773,0.5927,-0.4517,-9.4462,2.3967,-1.1324,0.4015,0.2933,-0.3089,-9.0915,-2.2293,1.5191,-0.401683,0,1698651232,63
0.0867,0.4078,-0.2887,0.1641,0.0414,-1.0745,0.8163,-0.6635,9.6325,0.0665,0.8269,0.5061,-0.5354,-9.4943,2.5175,-1.0797,0.1935,0.491,-0.4364,-9.1899,-2.1719,1.5231,-0.497685,0,1698651232,64
0.0912,0.4192,-0.2888,0.1294,0.1986,-0.969,0.8127,-0.8161,9.6357,-0.0783,0.6761,0.3842,-0.5808,-9.5761,2.6055,-1.0437,0.0958,0.3565,-0.4553,-9.2733,-2.1965,1.5797,-0.572123,0,1698651232,64
0.0955,0.4093,-0.2889,0.1138,0.4605,-0.9314,0.855,-0.9728,9.5668,-0.2284,0.5444,0.1746,-0.5871,-9.6944,2.6437,-1.0207,0.0813,0.229,-0.5092,-9.3491,-2.2509,1.695,-0.629547,0,1698651232,65
0.0991,0.3729,-0.289,0.0911,0.6357,-0.9269,0.9186,-1.1888,9.6298,-0.4557,0.4387,-0.1195,-0.5605,-9.821,2.6551,-0.9759,0.1024,0.1436,-0.6176,-9.4181,-2.3482,1.8692,-0.671742,0,1698651232,66
0.103,0.3749,-0.2891,0.0623,0.6637,-0.9728,0.9424,-1.4486,9.7584,-0.6584,0.3771,-0.4869,-0.5049,-9.9388,2.6322,-0.9748,0.2227,-0.2065,-0.6804,-9.4781,-2.5061,2.026,-0.69928,0,1698651232,67
0.1077,0.4014,-0.2891,0.0384,0.7109,-1.1175,0.9354,-1.7431,9.8564,-0.7386,0.3948,-0.8804,-0.4139,-10.0731,2.545,-1.006,0.4594,-0.723,-0.7352,-9.5525,-2.702,2.1764,-0.704924,0,1698651232,67
0.1118,0.4048,-0.289,0.0189,0.8933,-1.3578,0.9614,-1.9727,10.0181,-0.7501,0.5475,-1.2603,-0.3007,-10.2301,2.3865,-1.0371,0.6705,-1.2008,-0.834,-9.6314,-2.9111,2.2854,-0.681869,0,1698651232,68
0.1146,0.3783,-0.2889,0.0182,1.081,-1.6288,1.0013,-2.1213,10.3045,-0.7968,0.8536,-1.58,-0.2,-10.3782,2.1994,-1.0456,0.9912,-1.4757,-1.0649,-9.6272,-3.1358,2.2562,-0.646584,0,1698651232,69
0.1158,0.3162,-0.2887,0.0273,1.1527,-1.9177,1.0117,-2.191,10.6652,-0.7742,1.2123,-1.8377,-0.1456,-10.477,2.0315,-1.0321,1.4236,-1.558,-1.3798,-9.5307,-3.3453,2.0991,-0.630484,0,1698651232,70
0.1161,0.2382,-0.2879,0.0573,0.841,-2.1659,0.9381,-2.1132,11.3906,-0.6909,1.4918,-2.0328,-0.1528,-10.597,1.8838,-1.0684,1.7867,-1.6858,-1.5852,-9.519,-3.5473,2.0207,-0.592535,0,1698651232,70
0.1159,0.1785,-0.286,0.1177,0.5189,-2.3238,0.7914,-2.0498,12.0634,-0.5671,1.662,-2.1775,-0.201,-10.7826,1.7704,-1.1583,2.1343,-2.2674,-1.5854,-9.6752,-3.7232,2.0071,-0.490212,0,1698651232,71
0.1155,0.1314,-0.2829,0.1947,0.6317,-2.4813,0.6357,-1.8043,12.1485,-0.1791,1.7474,-2.2916,-0.258,-11.0127,1.7066,-1.2648,2.3268,-2.7848,-1.5873,-9.9229,-3.7946,1.9214,-0.382254,0,1698651232,72
0.1151,0.0941,-0.2785,0.2876,0.8471,-2.5586,0.49,-1.2323,12.0437,0.3649,1.7958,-2.3614,-0.3023,-11.2694,1.6843,-1.309,2.3246,-2.9063,-1.6611,-10.2615,-3.8103,1.9008,-0.304934,0,1698651232,73
0.1141,0.0343,-0.2729,0.3795,1.2386,-2.3015,0.3266,-0.5768,11.6759,1.0836,1.8513,-2.3757,-0.335,-11.4586,1.6708,-1.2995,2.2147,-3.0143,-1.6657,-10.6172,-3.7692,1.8728,-0.246204,0,1698651232,73
0.1109,-0.0537,-0.2672,0.4182,1.6176,-1.9749,0.1315,0.0528,11.3094,1.686,1.8739,-2.3637,-0.3928,-11.5468,1.6479,-1.3424,1.9793,-2.8442,-1.6462,-10.824,-3.6879,1.7759,-0.195335,0,1698651232,74
0.1055,-0.1601,-0.2625,0.4126,1.7416,-1.6982,-0.0575,0.474,11.3605,1.8024,1.7909,-2.3271,-0.4777,-11.5164,1.6444,-1.4356,1.7207,-2.2792,-1.6251,-10.8585,-3.6002,1.6902,-0.144904,0,1698651232,75
0.0976,-0.3412,-0.2581,0.4234,1.8234,-1.3665,-0.1916,0.6117,11.3352,1.8423,1.5893,-2.2161,-0.5616,-11.326,1.6606,-1.5336,1.4951,-1.5575,-1.5678,-10.7559,-3.4914,1.5881,-0.092324,0,1698651232,76
0.0866,-0.5516,-0.2528,0.4741,1.8444,-1.0723,-0.2164,0.6654,11.0956,1.9214,1.3628,-2.0352,-0.6284,-10.9892,1.6358,-1.6266,1.2508,-0.8886,-1.4568,-10.5162,-3.3815,1.4631,-0.039359,0,1698651232,77
