right_q,right_q_dot,left_q,left_q_dot,pelv_ang_1,pelv_ang_2,pelv_ang_3,pelv_acc_1,pelv_acc_1,pelv_acc_3,right_chest_ang_x,right_chest_ang_y,right_chest_ang_z,right_chest_acc_x,right_chest_acc_y,right_chest_acc_z,left_chest_ang_x,left_chest_ang_y,left_chest_ang_z,left_chest_acc_x,left_chest_acc_y,left_chest_acc_z,,,,Label
-0.3303,-0.4287,-0.0141,0.6292,-0.1747,0.0514,1.2882,0.3983,8.7865,0.7078,0.3244,-0.5452,0.6146,-7.4842,3.5982,-0.4481,0.6184,1.7371,-0.0454,-7.1822,-0.8524,3.9997,0.28557,0,1698647670,0
-0.3302,-0.3331,-0.0081,0.6493,-0.167,0.1663,1.117,0.407,8.8503,0.5943,0.1681,-0.3241,0.6184,-7.5828,3.5687,-0.3905,0.3253,1.5732,0.3154,-7.2446,-0.9476,4.0405,0.000209,0,1698647670,1
-0.3301,-0.2537,-0.0016,0.6808,-0.2206,0.2419,0.9798,0.3658,8.8939,0.5135,0.0612,-0.1106,0.6255,-7.6741,3.545,-0.3223,0.1326,1.4357,0.5419,-7.3205,-0.9847,4.0413,-0.222392,0,1698647670,2
-0.3298,-0.1858,0.0053,0.6756,-0.2478,0.2614,0.8417,0.3101,8.9431,0.4253,-0.0073,0.0987,0.6285,-7.7637,3.5252,-0.2733,-0.1586,1.3511,0.6965,-7.3576,-0.9748,4.1086,-0.395108,0,1698647670,2
-0.3295,-0.1312,0.0118,0.6518,-0.3149,0.2834,0.6833,0.3459,9.0283,0.3434,-0.0393,0.2774,0.6317,-7.8614,3.5309,-0.2505,-0.487,1.2529,0.8669,-7.3746,-0.982,4.2433,-0.527302,0,1698647670,3
-0.3293,-0.1018,0.0181,0.6483,-0.4122,0.2919,0.5159,0.3435,9.0076,0.2897,-0.0777,0.4146,0.6197,-7.9581,3.5581,-0.2456,-0.7003,1.152,0.9899,-7.3983,-0.9986,4.3607,-0.622925,0,1698647670,4
-0.3291,-0.0852,0.0242,0.637,-0.4827,0.2968,0.3357,0.3534,9.1048,0.2191,-0.1732,0.5228,0.584,-8.044,3.6025,-0.2362,-0.8209,1.0838,1.0624,-7.4365,-1.0053,4.4605,-0.68189,0,1698647670,5
-0.3281,-0.0357,0.03,0.635,-0.5187,0.2811,0.1803,0.4306,9.5891,0.0362,-0.3078,0.6213,0.54,-8.1307,3.6583,-0.2166,-0.8821,0.9959,1.1469,-7.4672,-1.0234,4.5663,-0.713986,0,1698647670,5
-0.3253,0.0535,0.0358,0.6187,-0.4631,0.2492,0.017,0.6258,9.3328,0.1965,-0.4653,0.7226,0.4965,-8.2122,3.7022,-0.2092,-0.8539,0.8433,1.273,-7.4859,-1.0516,4.672,-0.746628,0,1698647670,6
-0.3204,0.1856,0.0406,0.5691,-0.5239,0.1776,-0.1678,0.7509,8.5353,0.5682,-0.6498,0.8132,0.461,-8.28,3.7243,-0.1945,-0.7842,0.6957,1.3982,-7.5133,-1.0609,4.7581,-0.779952,0,1698647670,7
-0.3133,0.3545,0.0441,0.5246,-0.762,0.2055,-0.3556,0.7038,8.304,0.653,-0.8467,0.8887,0.442,-8.3367,3.7321,-0.1797,-0.7914,0.6152,1.4989,-7.5435,-1.0519,4.8501,-0.761106,0,1698647670,8
-0.3042,0.5297,0.0469,0.4896,-0.8975,0.3908,-0.5611,0.7461,8.2828,0.6657,-1.0441,0.9618,0.4408,-8.3824,3.7397,-0.1872,-0.9155,0.6064,1.5822,-7.5626,-1.0502,4.9342,-0.674677,0,1698647670,9
-0.294,0.6818,0.0499,0.4638,-0.9295,0.5739,-0.7242,0.8494,8.2778,0.6651,-1.2118,1.0364,0.4561,-8.4315,3.7401,-0.194,-1.1047,0.6055,1.675,-7.5873,-1.0558,5.0096,-0.556334,0,1698647670,9
-0.2837,0.7767,0.0538,0.4519,-0.8521,0.7758,-0.8057,0.8985,8,0.7157,-1.3285,1.1098,0.491,-8.5028,3.7401,-0.2202,-1.2662,0.5622,1.7727,-7.6311,-1.0832,5.0714,-0.463695,0,1698647670,10
-0.274,0.8033,0.0589,0.4769,-0.6292,0.8772,-0.8144,0.7385,7.8411,0.7611,-1.3935,1.1616,0.5453,-8.6052,3.7452,-0.2729,-1.3686,0.4927,1.8732,-7.6916,-1.0836,5.1081,-0.453972,0,1698647670,11
-0.2652,0.7926,0.0644,0.5048,-0.3581,0.973,-0.7838,0.5415,8.136,0.55,-1.3912,1.1627,0.602,-8.7352,3.763,-0.3432,-1.4797,0.4354,1.9693,-7.7607,-1.0698,5.1495,-0.518388,0,1698647670,12
-0.2577,0.7684,0.0696,0.5099,-0.1287,1.1523,-0.7369,0.4677,8.6371,0.2329,-1.3332,1.1056,0.6478,-8.8827,3.8025,-0.432,-1.6461,0.4011,2.0481,-7.8324,-1.0729,5.2271,-0.607359,0,1698647670,12
-0.2516,0.7245,0.0748,0.5028,0.1542,1.2336,-0.6767,0.39,8.9823,0.109,-1.2728,1.0186,0.6808,-9.0361,3.8474,-0.529,-1.8589,0.3779,2.1008,-7.926,-1.0689,5.3371,-0.68871,0,1698647670,13
-0.2472,0.6462,0.0796,0.488,0.4541,1.2575,-0.612,0.3304,9.0876,0.1137,-1.2599,0.923,0.697,-9.1905,3.8996,-0.5935,-2.0889,0.3598,2.1213,-8.0342,-1.0902,5.4247,-0.755843,0,1698647670,14
-0.2449,0.529,0.0834,0.4734,0.5635,1.3067,-0.5651,0.2628,9.3057,-0.0004,-1.2815,0.8282,0.6986,-9.3355,3.9385,-0.6008,-2.2582,0.31,2.1116,-8.1605,-1.1371,5.5007,-0.808943,0,1698647670,15
-0.2444,0.4019,0.0859,0.4214,0.5981,1.3902,-0.5381,0.2349,9.6088,-0.2283,-1.3323,0.7256,0.6861,-9.4752,3.9792,-0.6083,-2.3164,0.1929,2.0939,-8.342,-1.1993,5.5662,-0.850016,0,1698647670,16
-0.2448,0.2982,0.0881,0.3811,0.6327,1.4959,-0.472,0.2252,9.8893,-0.3754,-1.3812,0.5999,0.6807,-9.6365,4.0878,-0.7098,-2.2857,-0.0225,2.0776,-8.6014,-1.239,5.6218,-0.882245,0,1698647670,16
-0.2448,0.2271,0.0909,0.3878,0.5872,1.6061,-0.3064,0.1268,10.2468,-0.4186,-1.3578,0.4725,0.7285,-9.8565,4.2798,-0.8662,-2.3114,-0.3244,2.0828,-8.9306,-1.187,5.7559,-0.907559,0,1698647670,17
-0.2447,0.1697,0.094,0.372,0.4623,1.7301,-0.0414,-0.0806,10.9111,-0.4051,-1.2203,0.3863,0.867,-10.1297,4.5343,-0.97,-2.5085,-0.6075,2.1261,-9.2895,-1.0458,5.9747,-0.925265,0,1698647670,18
-0.2445,0.1465,0.0965,0.3283,0.3423,1.7923,0.2862,-0.428,11.6723,-0.5036,-0.966,0.3491,1.0956,-10.4139,4.8185,-0.9627,-2.7503,-0.8052,2.1477,-9.6179,-0.8784,6.2944,-0.931067,0,1698647670,19
-0.243,0.1716,0.0973,0.2669,-0.1565,1.7324,0.5935,-0.8322,12.8813,-1.2644,-0.7192,0.2529,1.3346,-10.6891,5.1035,-0.879,-2.7966,-0.9537,2.1007,-9.8862,-0.7567,6.6482,-0.824741,0,1698647670,19
-0.239,0.2733,0.097,0.203,-0.8738,1.6705,0.8817,-0.9546,14.1222,-2.2987,-0.6672,0.0232,1.4733,-10.9258,5.351,-0.9543,-2.473,-1.1125,1.9763,-10.141,-0.7237,6.8867,-0.616613,0,1698647670,20
-0.2319,0.4117,0.0964,0.1455,-1.1735,1.5585,1.1004,-0.905,14.4644,-2.4278,-0.839,-0.2525,1.4668,-11.1415,5.5665,-1.2229,-1.8253,-1.2034,1.7016,-10.3745,-0.7349,6.9298,-0.427497,0,1698647670,21
-0.2234,0.492,0.0948,0.0575,-1.0058,1.3701,1.2055,-0.824,14.1075,-1.8331,-1.1173,-0.4751,1.3578,-11.3307,5.7387,-1.4657,-1.082,-1.2698,1.3102,-10.5182,-0.7353,6.7788,-0.408929,0,1698647670,22
-0.2153,0.5536,0.0912,-0.082,-0.6046,1.2008,1.2624,-0.6534,13.4595,-1.1122,-1.3905,-0.5824,1.1973,-11.4164,5.7949,-1.5832,-0.4773,-1.3392,0.9652,-10.5504,-0.7145,6.4659,-0.535057,0,1698647670,22
-0.2083,0.581,0.0848,-0.2488,-0.2827,1.0105,1.2376,-0.6131,13.2096,-0.5106,-1.5968,-0.6138,0.99,-11.3777,5.7678,-1.5846,-0.0665,-1.2952,0.6717,-10.4843,-0.6248,6.1467,-0.638681,0,1698647670,23
-0.2034,0.5408,0.0763,-0.3752,-0.0625,0.8712,1.1212,-0.508,13.1873,-0.1494,-1.7536,-0.6245,0.7233,-11.217,5.7138,-1.5901,0.2049,-1.0701,0.3449,-10.3487,-0.5103,5.8621,-0.719242,0,1698647670,24
-0.2002,0.4717,0.0669,-0.5195,0.0855,0.8081,0.9413,-0.2901,12.8915,0.1718,-1.9257,-0.5979,0.3628,-10.9365,5.6144,-1.6801,0.3561,-0.7043,-0.0181,-10.1491,-0.4325,5.4772,-0.781778,0,1698647670,25
-0.1973,0.4264,0.0559,-0.712,0.1715,0.7523,0.695,-0.127,12.4763,0.4077,-2.1668,-0.5312,-0.0749,-10.5413,5.4737,-1.7981,0.4573,-0.3802,-0.3349,-9.9085,-0.3794,5.0067,-0.830253,0,1698647670,26
-0.1929,0.4606,0.0427,-0.9032,0.2511,0.7448,0.3836,0.0364,12.022,0.5807,-2.4614,-0.3533,-0.5231,-10.0431,5.31,-1.8619,0.5197,-0.1233,-0.5538,-9.6289,-0.333,4.5301,-0.867663,0,1698647670,26
-0.1858,0.5713,0.0277,-1.0497,0.2328,0.8191,0.0224,0.1899,11.4951,0.7183,-2.7694,-0.0855,-0.9471,-9.4651,5.11,-1.8699,0.4506,0.1742,-0.7297,-9.2781,-0.2582,4.0708,-0.896331,0,1698647670,27
-0.1762,0.7058,0.0125,-1.1666,0.0711,0.9722,-0.3587,0.2903,11.083,0.7674,-3.065,0.1778,-1.3216,-8.844,4.8824,-1.8923,0.1779,0.4419,-0.8621,-8.881,-0.1488,3.6545,-0.91848,0,1698647670,28
-0.1652,0.7887,-0.0038,-1.3213,-0.0391,1.1712,-0.7136,0.396,10.6664,0.8967,-3.2852,0.4574,-1.6133,-8.1935,4.6458,-1.9453,-0.2759,0.6166,-0.9053,-8.4815,-0.0681,3.2291,-0.922655,0,1698647670,29
-0.1532,0.8477,-0.0216,-1.4586,-0.0948,1.3752,-1.0045,0.4984,10.1212,1.0252,-3.5056,0.7427,-1.8484,-7.5602,4.4241,-2.0172,-0.8389,0.7234,-0.8732,-8.1033,-0.0183,2.8189,-0.916803,0,1698647670,29
-0.1422,0.8781,-0.0396,-1.547,-0.0845,1.5738,-1.2075,0.5376,9.6894,1.0914,-3.7603,0.9873,-2.0293,-7.0073,4.2371,-2.0685,-1.5071,0.7782,-0.7622,-7.7518,0.0621,2.5162,-0.809726,0,1698647670,30
-0.1328,0.8724,-0.0574,-1.6276,-0.0151,1.7697,-1.308,0.5483,8.9989,1.3951,-3.9275,1.1739,-2.111,-6.572,4.0778,-2.1089,-2.1199,0.6622,-0.5465,-7.483,0.1299,2.27,-0.54407,0,1698647670,31
-0.1251,0.8359,-0.0751,-1.7001,-0.0438,1.8444,-1.3546,0.3419,8.5202,1.6681,-3.9142,1.2907,-2.1012,-6.3125,3.9797,-2.1359,-2.5925,0.3182,-0.2306,-7.3312,0.2008,2.0898,-0.238456,0,1698647670,32
-0.1184,0.7812,-0.0934,-1.7509,-0.1786,1.9134,-1.3567,-0.0129,8.3315,1.7158,-3.713,1.2697,-1.976,-6.2157,3.9275,-2.1546,-2.9604,-0.203,0.1391,-7.2972,0.2232,2.0386,0.022763,0,1698647670,33
-0.1117,0.7555,-0.1124,-1.7887,-0.4086,2.1171,-1.297,-0.3214,8.204,1.759,-3.4289,1.0788,-1.7526,-6.2367,3.8798,-2.1773,-3.2418,-0.9605,0.5686,-7.3293,0.224,2.1907,0.21489,0,1698647670,33
-0.1044,0.7643,-0.1322,-1.8557,-0.6844,2.2974,-1.2131,-0.7671,8.5432,1.6685,-3.1792,0.7234,-1.5135,-6.3466,3.84,-2.1961,-3.4511,-1.5618,0.9363,-7.4289,0.3142,2.4146,0.285734,0,1698647670,34
-0.0964,0.7725,-0.1523,-1.8804,-0.7895,2.423,-1.1232,-1.1737,8.5808,1.5448,-2.929,0.2591,-1.2434,-6.5661,3.8327,-2.1909,-3.5787,-2.0467,1.273,-7.5986,0.3672,2.5926,0.219178,0,1698647670,35
-0.0876,0.7673,-0.172,-1.8482,-0.7715,2.466,-1.0227,-1.4291,8.3997,1.5021,-2.624,-0.169,-0.945,-6.8352,3.8986,-2.1451,-3.6599,-2.4753,1.5994,-7.7209,0.3356,2.775,0.079822,0,1698647670,36
-0.0789,0.7775,-0.1917,-1.8755,-0.7234,2.4184,-0.9046,-1.6747,8.2879,1.5674,-2.2975,-0.4111,-0.6842,-7.0801,4.0353,-2.1112,-3.5611,-2.5764,1.7199,-7.8436,0.2779,2.9741,-0.06652,0,1698647670,36
-0.0706,0.7616,-0.2099,-1.9102,-0.5923,2.3312,-0.8069,-1.7603,8.0482,1.6624,-2.0064,-0.3929,-0.5166,-7.3082,4.2102,-2.0613,-3.3114,-2.4675,1.655,-8.0063,0.281,3.2447,-0.157106,0,1698647670,37
-0.0634,0.7522,-0.2252,-1.8694,-0.4393,2.2132,-0.7387,-1.7054,7.9991,1.6154,-1.9099,-0.1768,-0.5304,-7.525,4.4187,-1.967,-3.0782,-2.2917,1.5083,-8.1426,0.3042,3.5653,-0.171813,0,1698647670,38
-0.0565,0.7514,-0.2392,-1.7714,-0.2694,2.1147,-0.7002,-1.6304,8.0412,1.5049,-2.0377,0.2245,-0.6954,-7.7185,4.6331,-1.8365,-2.8459,-2.052,1.3449,-8.241,0.2859,3.8108,-0.127563,0,1698647670,39
-0.0496,0.7312,-0.2532,-1.6524,0.0237,2.0177,-0.7027,-1.6066,7.9731,1.507,-2.1737,0.705,-0.8653,-7.8567,4.8397,-1.6408,-2.5675,-1.7346,1.2206,-8.3144,0.2559,3.9535,-0.036099,0,1698647670,40
-0.0432,0.6939,-0.2665,-1.5792,0.357,1.8981,-0.7489,-1.5617,8.0022,1.5567,-2.2707,1.1438,-1.0177,-7.9184,5.0133,-1.4632,-2.3197,-1.425,1.1402,-8.3544,0.2441,4.0688,0.022156,0,1698647670,40
-0.0369,0.6692,-0.2791,-1.5099,0.5409,1.599,-0.8411,-1.4102,8.2518,1.4491,-2.5123,1.5613,-1.235,-7.8976,5.1091,-1.3923,-2.0855,-1.3107,1.2115,-8.3517,0.2347,4.1637,0.033152,0,1698647670,41
-0.0306,0.6645,-0.2909,-1.4185,0.6411,1.4049,-0.9561,-1.3009,8.5892,1.2178,-2.8789,1.9546,-1.4898,-7.8355,5.1455,-1.3786,-1.8389,-1.3472,1.4442,-8.3106,0.2134,4.1794,0.139164,0,1698647670,42
-0.0247,0.6423,-0.3032,-1.3746,0.8272,1.6863,-1.0898,-1.2555,8.7659,1.1276,-3.2241,2.2823,-1.6945,-7.7622,5.1249,-1.3747,-1.5833,-1.3482,1.6352,-8.2429,0.2466,4.1788,0.32123,0,1698647670,43
-0.0185,0.6251,-0.3151,-1.3609,0.9461,1.8767,-1.2362,-1.1703,8.753,1.1295,-3.4411,2.5172,-1.8101,-7.6897,5.0309,-1.3415,-1.4386,-1.3396,1.7784,-8.101,0.2562,4.2128,0.472649,0,1698647670,43
-0.0123,0.6317,-0.3259,-1.3261,1.0087,1.8167,-1.3704,-1.2669,8.7826,1.074,-3.5023,2.6826,-1.8479,-7.6417,4.9095,-1.2844,-1.4769,-1.2214,1.8385,-7.9163,0.2782,4.3015,0.590382,0,1698647670,44
-0.0061,0.6556,-0.3363,-1.271,1.0479,1.7667,-1.4883,-1.393,8.8109,1.0338,-3.5294,2.7514,-1.8653,-7.6054,4.7884,-1.2432,-1.6456,-1.0954,1.8366,-7.7348,0.328,4.4155,0.681818,0,1698647671,45
0.0006,0.6872,-0.3462,-1.2246,0.81,1.7951,-1.5364,-1.488,8.7481,1.0403,-3.5905,2.6865,-1.8873,-7.5637,4.6273,-1.2065,-1.9429,-1.0197,1.8249,-7.5156,0.2966,4.495,0.751114,0,1698647671,46
0.0074,0.702,-0.3556,-1.1892,0.5459,1.8692,-1.5601,-1.6179,8.8598,0.9056,-3.6482,2.5226,-1.8951,-7.5553,4.4477,-1.1563,-2.276,-0.8928,1.751,-7.2704,0.2257,4.5731,0.799651,0,1698647671,47
0.0142,0.7102,-0.3645,-1.1473,0.3373,1.8842,-1.5922,-1.5571,9.0849,0.6106,-3.6785,2.346,-1.9002,-7.5549,4.2886,-1.1109,-2.5952,-0.7388,1.6212,-7.0209,0.1349,4.6324,0.834649,0,1698647671,47
0.0211,0.7042,-0.3722,-1.054,0.0987,1.8736,-1.554,-1.5721,9.1702,0.4625,-3.6373,2.207,-1.8949,-7.561,4.1485,-1.0181,-2.8228,-0.5791,1.4446,-6.8181,0.0226,4.6709,0.839545,0,1698647671,48
0.0277,0.6662,-0.3785,-0.9734,-0.0722,1.8015,-1.4758,-1.6503,9.267,0.4036,-3.5166,2.0872,-1.8831,-7.5829,4.0407,-0.9199,-2.9611,-0.4005,1.24,-6.6765,-0.0756,4.7172,0.740711,0,1698647671,49
0.0338,0.6285,-0.384,-0.889,-0.2791,1.7012,-1.3673,-1.6657,9.3622,0.3281,-3.3224,1.9882,-1.8909,-7.606,3.9562,-0.8925,-3.0362,-0.2499,1.0189,-6.5781,-0.1711,4.7815,0.509512,0,1698647671,50
0.0401,0.605,-0.3881,-0.767,-0.5276,1.6267,-1.2251,-1.6845,9.298,0.261,-3.0505,1.9283,-1.8885,-7.6457,3.9021,-0.8544,-3.0715,-0.1713,0.8183,-6.5471,-0.2129,4.8782,0.239235,0,1698647671,50
0.046,0.5897,-0.39,-0.6319,-0.758,1.5714,-1.0678,-1.6791,9.1903,0.1738,-2.6774,1.8996,-1.8534,-7.6844,3.8729,-0.8376,-3.076,-0.1426,0.6462,-6.5687,-0.1895,4.9439,0.020028,0,1698647671,51
0.0516,0.5724,-0.3903,-0.4915,-0.8902,1.49,-0.9098,-1.6806,9.0429,0.1558,-2.2521,1.8544,-1.821,-7.7368,3.8806,-0.8815,-2.9814,-0.1526,0.4818,-6.6253,-0.1695,4.9928,-0.147111,0,1698647671,52
0.0574,0.5618,-0.3901,-0.375,-0.9758,1.3715,-0.7854,-1.6694,8.931,0.2103,-1.8748,1.7545,-1.8222,-7.7961,3.9481,-0.9306,-2.7656,-0.1451,0.3193,-6.7109,-0.1406,5.0089,-0.278567,0,1698647671,53
0.064,0.5668,-0.3898,-0.2931,-1.0346,1.2692,-0.6973,-1.7064,8.8604,0.2069,-1.5648,1.607,-1.8411,-7.8278,4.0329,-0.9981,-2.506,-0.072,0.1563,-6.8264,-0.0946,4.9685,-0.376318,0,1698647671,53
0.0706,0.5617,-0.3895,-0.2167,-1.0087,1.1607,-0.6237,-1.7528,8.7954,0.1526,-1.324,1.4524,-1.8583,-7.8518,4.1196,-1.053,-2.22,-0.2546,0.0059,-6.9746,-0.0717,4.9884,-0.462248,0,1698647671,54
0.0776,0.5592,-0.3891,-0.1452,-1.0828,1.167,-0.5484,-1.7002,8.9212,-0.3259,-1.0194,1.2001,-1.8559,-7.9308,4.2712,-1.0278,-1.5668,-0.4714,-0.1948,-7.2238,-0.0316,5.2035,-0.544521,0,1698647671,55
0.0852,0.5848,-0.3869,-0.0686,-1.0828,1.167,-0.5484,-1.7002,8.9212,-0.3259,-1.0194,1.2001,-1.8559,-7.9308,4.2712,-1.0278,-1.5668,-0.4714,-0.1948,-7.2238,-0.0316,5.2035,-0.612819,0,1698647671,56
0.0918,0.6061,-0.3817,0.0622,-1.2762,1.1342,-0.4851,-1.7348,9.1235,-0.4576,-0.9379,1.0647,-1.8383,-7.9752,4.3138,-0.9897,-1.2561,-0.4243,-0.2822,-7.3094,0.0411,5.3204,-0.670211,0,1698647671,57
0.0977,0.6095,-0.3748,0.2138,-1.3779,0.9622,-0.4154,-1.8321,9.2467,-0.5311,-0.8865,0.9127,-1.8024,-8.0302,4.3386,-0.9585,-1.0174,-0.4379,-0.3577,-7.3685,0.0647,5.4002,-0.722787,0,1698647671,57
0.1031,0.5828,-0.3668,0.3533,-1.4773,0.912,-0.3503,-1.906,9.211,-0.6622,-0.8397,0.7564,-1.7448,-8.0866,4.3412,-0.918,-0.8498,-0.4792,-0.4198,-7.4104,0.0154,5.4581,-0.770791,0,1698647671,58
0.1075,0.5541,-0.3576,0.4661,-1.4932,0.8322,-0.2979,-2.1222,9.3123,-0.7597,-0.7395,0.6298,-1.6472,-8.1547,4.3278,-0.8688,-0.7665,-0.5403,-0.4305,-7.4381,-0.0087,5.5593,-0.81325,0,1698647671,59
0.1119,0.5682,-0.3481,0.5997,-1.4067,0.6969,-0.2829,-2.3703,9.4687,-0.7962,-0.5611,0.5178,-1.5134,-8.2052,4.3088,-0.8609,-0.6831,-0.5868,-0.4473,-7.4433,-0.0267,5.6186,-0.851186,0,1698647671,60
0.117,0.5799,-0.3378,0.7466,-1.3267,0.5765,-0.301,-2.5231,9.6183,-0.8694,-0.3629,0.4027,-1.372,-8.2219,4.2885,-0.8852,-0.5144,-0.6775,-0.4433,-7.431,-0.0294,5.6989,-0.883284,0,1698647671,60
0.1218,0.5519,-0.327,0.8414,-1.1845,0.477,-0.2971,-2.6127,9.6484,-0.8916,-0.1757,0.2912,-1.2255,-8.2232,4.2751,-0.912,-0.2819,-0.7804,-0.4309,-7.4263,0.0409,5.7803,-0.909191,0,1698647671,61
0.1257,0.4994,-0.317,0.8908,-1.0961,0.3647,-0.2516,-2.5458,9.7499,-0.8272,0.0107,0.1636,-1.0708,-8.2482,4.2874,-0.8982,-0.028,-0.8671,-0.4195,-7.4601,0.0894,5.7804,-0.929439,0,1698647671,62
0.1295,0.4746,-0.3084,0.8786,-0.9423,0.2017,-0.1872,-2.4911,9.7568,-0.677,0.2142,0.0177,-0.8961,-8.3219,4.3234,-0.8623,0.3626,-0.9387,-0.3851,-7.5294,0.1135,5.797,-0.944983,0,1698647671,63
0.1336,0.4666,-0.3017,0.8151,-0.8356,0.0896,-0.0988,-2.377,9.7343,-0.6336,0.4268,-0.1417,-0.7085,-8.4072,4.3771,-0.8619,0.609,-0.9252,-0.3874,-7.604,0.1794,5.8236,-0.956654,0,1698647671,64
0.1372,0.4301,-0.2978,0.6994,-0.711,-0.0171,0.038,-2.3311,9.8281,-0.7071,0.62,-0.3047,-0.5337,-8.4738,4.4642,-0.8689,0.5472,-0.862,-0.4215,-7.6617,0.2569,5.864,-0.965234,0,1698647671,64
0.1397,0.3674,-0.2967,0.5506,-0.615,-0.1724,0.1979,-2.3553,10.0693,-0.8625,0.7889,-0.4543,-0.3801,-8.5348,4.5973,-0.8743,0.4549,-0.7626,-0.4719,-7.7108,0.3296,5.9122,-0.971316,0,1698647671,65
0.1417,0.3009,-0.2967,0.4244,-0.67,-0.3408,0.3809,-2.3482,10.332,-1.0676,0.9311,-0.6139,-0.2438,-8.622,4.7491,-0.8993,0.3398,-0.6632,-0.5016,-7.7992,0.386,5.982,-0.973111,0,1698647671,66
0.1434,0.2496,-0.2966,0.328,-0.694,-0.5363,0.5811,-2.4261,10.3947,-1.1415,1.0109,-0.8368,-0.1378,-8.7566,4.8704,-1.0257,0.2955,-0.6107,-0.5111,-7.9924,0.346,6.0435,-0.962112,0,1698647671,67
0.145,0.2191,-0.2964,0.2649,-0.6359,-0.839,0.7109,-2.5572,10.569,-1.0221,1.067,-1.1011,-0.0471,-9.002,4.961,-1.2358,0.3889,-0.6211,-0.5364,-8.2919,0.1745,6.1064,-0.927269,0,1698647671,67
0.147,0.2216,-0.2952,0.2534,-0.5508,-1.1593,0.7095,-2.579,10.9741,-0.7245,1.2485,-1.3456,0.0899,-9.424,5.0217,-1.356,0.6686,-0.7365,-0.6045,-8.626,-0.1043,6.2144,-0.877352,0,1698647671,68
0.1487,0.1954,-0.2915,0.3009,-0.3313,-1.4124,0.6079,-2.4664,11.2957,-0.2575,1.5643,-1.5023,0.2747,-9.9218,5.044,-1.3601,1.104,-0.8773,-0.7734,-8.9596,-0.3911,6.3851,-0.85811,0,1698647671,69
0.1491,0.1388,-0.2849,0.4284,-0.1283,-1.5579,0.448,-2.1611,11.4153,0.2062,1.8359,-1.5762,0.4711,-10.3719,5.0647,-1.3304,1.5486,-0.9679,-1.0043,-9.3233,-0.556,6.6372,-0.875451,0,1698647671,70
0.1488,0.1035,-0.276,0.572,-0.0048,-1.6487,0.2105,-1.7973,11.6068,0.5899,1.8927,-1.6149,0.5827,-10.7652,5.1055,-1.2835,1.8642,-1.0537,-1.1546,-9.6926,-0.5851,6.9108,-0.888771,0,1698647671,71
0.1481,0.0668,-0.2659,0.678,0.2275,-1.7269,-0.1325,-1.5312,11.7337,0.8773,1.699,-1.5555,0.5621,-11.016,5.1302,-1.3096,2.1145,-1.1944,-1.2262,-10.0085,-0.6235,7.0714,-0.840638,0,1698647671,71
0.1465,0.0008,-0.2563,0.7188,0.2485,-1.4817,-0.7023,-1.3358,12.1735,0.5854,1.356,-1.3602,0.477,-11.0739,5.078,-1.4398,2.3352,-1.29,-1.2299,-10.2478,-0.6937,7.0871,-0.78707,0,1698647671,72
0.1427,-0.1079,-0.2484,0.6972,0.6049,-1.091,-1.1083,-1.2904,12.6958,0.0832,0.9992,-1.0202,0.3913,-10.9794,4.8945,-1.6582,2.4709,-1.1581,-1.2148,-10.3709,-0.7083,6.982,-0.799541,0,1698647671,73
0.1359,-0.2527,-0.2427,0.6412,1.1868,-0.8446,-1.1262,-1.2129,12.7944,-0.1059,0.7545,-0.561,0.3623,-10.803,4.6597,-1.9214,2.5405,-0.8639,-1.2099,-10.3804,-0.7606,6.7435,-0.824609,0,1698647671,74
0.1267,-0.3968,-0.2397,0.5513,1.4061,-0.6976,-1.0727,-1.2214,12.562,0.0027,0.7254,-0.0952,0.4164,-10.6156,4.4239,-2.1331,2.4531,-0.4454,-1.1575,-10.244,-0.8291,6.4139,-0.845159,0,1698647671,74
0.1161,-0.5557,-0.2384,0.4599,1.6753,-0.6618,-0.9171,-1.3181,11.8347,0.2619,0.8938,0.299,0.5351,-10.374,4.1084,-2.3191,2.1577,0.1337,-1.0768,-9.9688,-0.8467,6.0568,-0.867215,0,1698647671,75
0.1041,-0.7455,-0.2365,0.4088,1.9117,-0.674,-0.6419,-1.3704,10.9829,0.4581,1.1592,0.5813,0.6717,-10.0396,3.7477,-2.4904,1.7962,0.7454,-1.0294,-9.6196,-0.9151,5.6597,-0.886599,0,1698647671,76
0.0909,-0.9218,-0.2324,0.4321,2.0109,-0.6468,-0.3191,-1.4052,10.3719,0.5848,1.4906,0.6463,0.7999,-9.6618,3.4231,-2.6073,1.4012,1.3049,-1.0208,-9.2228,-1.0135,5.2337,-0.90543,0,1698647671,77
0.0763,-1.0837,-0.2256,0.5364,2.186,-0.6948,0.0067,-1.4026,9.9184,0.6435,1.8699,0.4974,0.9148,-9.2961,3.1641,-2.6811,1.0006,1.794,-1.0209,-8.8012,-1.1198,4.8328,-0.921537,0,1698647671,78
0.0611,-1.2345,-0.2175,0.6489,2.4797,-0.8002,0.3082,-1.296,9.4154,0.7342,2.2335,0.2284,1.016,-8.9416,2.9372,-2.7397,0.7508,2.1662,-1.0755,-8.3786,-1.2053,4.4233,-0.919847,0,1698647671,78
0.0455,-1.3216,-0.2074,0.7384,2.597,-0.8412,0.5663,-1.1042,8.8777,1.0008,2.5884,-0.1161,1.1568,-8.5894,2.7097,-2.7852,0.6421,2.3667,-1.1417,-8.0271,-1.2608,4.0414,-0.901186,0,1698647671,79
0.0283,-1.3596,-0.1961,0.8282,2.3157,-0.8721,0.7634,-0.9841,8.7514,1.2702,2.9825,-0.4978,1.3931,-8.2515,2.5115,-2.7741,0.607,2.3946,-1.1455,-7.7893,-1.3191,3.7613,-0.899856,0,1698647671,80
0.0104,-1.4236,-0.1855,0.8577,1.7929,-0.8826,0.9054,-1.0271,9.2784,1.2287,3.3823,-0.9111,1.7318,-7.9418,2.3772,-2.6751,0.6334,2.3148,-1.1084,-7.6493,-1.3692,3.5664,-0.919676,0,1698647671,81
-0.0085,-1.5338,-0.1761,0.8875,1.3835,-0.9827,0.9927,-1.1356,9.9601,0.9856,3.7772,-1.3199,2.1048,-7.7022,2.2843,-2.5295,0.7136,2.1123,-1.0275,-7.5422,-1.4081,3.4541,-0.937555,0,1698647671,81
-0.0289,-1.6286,-0.1676,0.8788,1.1405,-1.2036,1.0255,-1.0769,10.2986,0.8329,4.0695,-1.7422,2.4116,-7.5902,2.2734,-2.343,0.8944,1.8033,-0.9204,-7.4501,-1.4207,3.4222,-0.951468,0,1698647671,82
-0.0502,-1.7644,-0.1606,0.8125,0.835,-1.5252,1.028,-1.0099,10.5518,0.7803,4.1406,-2.1895,2.6115,-7.6203,2.368,-2.1628,1.2188,1.398,-0.8083,-7.4112,-1.4775,3.4551,-0.961493,0,1698647671,83
-0.072,-1.9338,-0.1546,0.7807,0.4631,-1.8866,1.0027,-1.0579,10.807,0.7627,4.0748,-2.6256,2.7301,-7.7615,2.4878,-2.0284,1.6097,0.9621,-0.7237,-7.4085,-1.5733,3.5227,-0.901606,0,1698647671,84
-0.0941,-2.0525,-0.1487,0.7298,0.1239,-2.1946,0.9387,-1.1031,10.9761,0.7239,3.9316,-2.9831,2.7737,-7.9559,2.5971,-1.9553,1.9909,0.5699,-0.6734,-7.4741,-1.6636,3.6438,-0.733167,0,1698647671,84
-0.1158,-2.1398,-0.1434,0.659,-0.1958,-2.4603,0.8643,-1.0327,11.0214,0.787,3.8093,-3.1951,2.7317,-8.2109,2.7,-1.9181,2.3594,0.2712,-0.665,-7.6044,-1.7429,3.8077,-0.549567,0,1698647671,85
-0.1368,-2.1358,-0.138,0.6374,-0.2447,-2.8098,0.7963,-0.9144,10.5301,1.1859,3.7178,-3.2431,2.5832,-8.5321,2.8288,-1.8584,2.6874,0.121,-0.7394,-7.7293,-1.7813,3.9804,-0.410429,0,1698647671,86
-0.1579,-2.0441,-0.1315,0.6416,-0.0824,-3.1256,0.7784,-0.7142,9.7176,1.6069,3.564,-3.103,2.3298,-8.834,2.9895,-1.7327,2.9081,0.0879,-0.8705,-7.8315,-1.7568,4.1843,-0.303735,0,1698647671,87
-0.1803,-1.9854,-0.1244,0.6344,-0.1746,-3.2006,0.8385,-0.4366,9.02,1.5625,3.3759,-2.5521,1.8388,-9.1318,3.2151,-1.3862,2.9677,0.4073,-1.0033,-7.9176,-1.5223,4.5317,-0.221173,0,1698647671,88
-0.2004,-1.9606,-0.1171,0.6347,-0.1192,-3.0874,0.9399,-0.1943,8.9854,1.4168,3.2576,-2.274,1.5956,-9.0756,3.2965,-1.2724,2.9264,0.6929,-1.0081,-7.8866,-1.437,4.6146,-0.157029,0,1698647671,88
-0.2172,-1.8728,-0.1099,0.6375,0.0023,-2.9748,1.0706,-0.0047,8.9507,1.3263,3.0361,-1.9891,1.2917,-8.8852,3.329,-1.2443,2.925,1.0272,-1.2573,-7.8213,-1.3777,4.6165,-0.106365,0,1698647671,89
-0.2325,-1.7465,-0.1027,0.6596,0.0941,-2.8123,1.225,0.1279,8.853,1.2808,2.8573,-1.7115,1.0139,-8.629,3.2949,-1.2621,3.0014,1.3132,-1.4347,-7.6889,-1.361,4.5881,-0.065788,0,1698647671,90
-0.2472,-1.6735,-0.0953,0.6985,0.2404,-2.6273,1.3866,0.172,8.7985,1.2209,2.7013,-1.4089,0.7248,-8.3443,3.2502,-1.258,3.1767,1.4724,-1.5264,-7.5205,-1.3873,4.5256,-0.033293,0,1698647671,91
-0.2615,-1.6119,-0.0879,0.7179,0.4111,-2.4827,1.5386,0.1935,8.8844,1.121,2.466,-0.9583,0.306,-8.0568,3.2398,-1.2113,3.3776,1.5619,-1.5636,-7.3459,-1.3645,4.3868,0.020102,0,1698647671,91
-0.2746,-1.5143,-0.0809,0.7157,0.5318,-2.321,1.6754,0.2051,8.8595,1.0078,2.3591,-0.6237,-0.0185,-7.8125,3.1989,-1.1686,3.5252,1.6195,-1.5618,-7.1629,-1.2858,4.2033,0.104598,0,1698647671,92
-0.2867,-1.4548,-0.0743,0.7275,0.6033,-2.1597,1.762,0.2341,8.8466,0.9295,2.4294,-0.5538,-0.0788,-7.5916,3.1586,-1.1255,3.5997,1.6753,-1.5408,-7.0422,-1.1969,4.0712,0.18773,0,1698647671,93
-0.2978,-1.3967,-0.0679,0.7428,0.5413,-2.013,1.7808,0.2636,9.0602,0.8024,2.5701,-0.6282,0.0329,-7.4161,3.1542,-1.0567,3.5809,1.734,-1.4955,-6.9624,-1.0984,3.9798,0.253272,0,1698647671,94
-0.3075,-1.2862,-0.0616,0.7291,0.3935,-1.8497,1.7476,0.2612,9.297,0.4925,2.693,-0.7908,0.1836,-7.2808,3.1768,-0.9641,3.441,1.7506,-1.399,-6.9113,-0.9824,3.873,0.305652,0,1698647671,95
-0.316,-1.1485,-0.0548,0.723,0.3323,-1.6503,1.6758,0.372,9.3673,0.1933,2.5857,-0.8881,0.333,-7.2709,3.2694,-0.9065,3.1926,1.7141,-1.2439,-6.9245,-0.8551,3.808,0.355163,0,1698647671,95
-0.3235,-1.0435,-0.0479,0.7366,0.5779,-1.4862,1.574,0.5407,9.2899,0.1571,2.4835,-0.9884,0.5453,-7.3188,3.4084,-0.8506,2.9239,1.6125,-1.0391,-7.0001,-0.7434,3.7935,0.419094,0,1698647671,96
-0.3296,-0.9387,-0.0411,0.7346,0.7977,-1.3646,1.4439,0.6183,9.0908,0.2219,2.5107,-1.1285,0.7946,-7.3199,3.5733,-0.7181,2.6154,1.4457,-0.782,-7.1282,-0.6256,3.82,0.483213,0,1698647671,97
-0.3337,-0.7845,-0.0336,0.7167,0.7417,-1.2165,1.2797,0.6837,8.9263,0.1913,2.4475,-1.1896,1.0087,-7.3472,3.7308,-0.6046,2.259,1.352,-0.5158,-7.2259,-0.5104,3.8456,0.554126,0,1698647671,98
-0.336,-0.6522,-0.0262,0.6964,0.7068,-1.0674,1.0993,0.7195,8.8864,0.1927,2.285,-1.1655,1.1622,-7.4029,3.8561,-0.5067,1.8757,1.3738,-0.2733,-7.3124,-0.4722,3.8773,0.637386,0,1698647671,98
-0.3371,-0.5375,-0.019,0.6774,0.6575,-0.914,0.9234,0.7612,8.8442,0.1686,2.0949,-1.0829,1.2926,-7.4788,3.9721,-0.4038,1.4314,1.4351,-0.0252,-7.4243,-0.4764,3.9236,0.704391,0,1698647671,99
-0.3376,-0.4271,-0.012,0.6666,0.5416,-0.7566,0.7579,0.7909,8.8833,0.0788,1.9089,-0.9624,1.4151,-7.5666,4.0547,-0.3182,0.9559,1.5005,0.2364,-7.5432,-0.4624,3.9819,0.692315,0,1698647671,0
-0.3376,-0.3328,-0.0056,0.6481,0.3928,-0.613,0.6096,0.7843,8.9725,0.0139,1.6954,-0.8118,1.5043,-7.6594,4.0978,-0.261,0.4826,1.5591,0.4934,-7.6359,-0.4817,4.043,0.469613,0,1698647671,1
-0.3375,-0.2507,0.0008,0.6395,0.2568,-0.3097,0.4928,0.7102,9.003,-0.0649,1.4495,-0.6275,1.542,-7.7472,4.1131,-0.2361,0.0903,1.6207,0.7219,-7.691,-0.5562,4.0814,0.144624,0,1698647671,2
-0.3375,-0.1922,0.007,0.6302,0.1529,-0.0963,0.408,0.5872,9.0564,-0.1482,1.1622,-0.4272,1.5211,-7.8374,4.0961,-0.2273,-0.1573,1.6371,0.9088,-7.7472,-0.6233,4.1612,-0.110848,0,1698647671,2
-0.3373,-0.1483,0.0128,0.6187,0.0474,-0.1274,0.3695,0.547,9.0952,-0.2108,0.87,-0.2299,1.4511,-7.94,4.0687,-0.2375,-0.2926,1.5782,1.0489,-7.7441,-0.7031,4.2582,-0.30936,0,1698647671,3
-0.3363,-0.0826,0.0183,0.6113,-0.2944,-0.2283,0.331,0.4312,9.6358,-0.6738,0.5919,-0.0579,1.3456,-8.0427,4.0426,-0.2529,-0.3423,1.4242,1.1619,-7.7149,-0.7675,4.3809,-0.463501,0,1698647671,4
-0.3335,0.0479,0.0233,0.5717,-0.5667,-0.5418,0.2363,0.3224,10.2166,-1.3364,0.3256,0.0459,1.2305,-8.146,4.024,-0.2493,-0.357,1.1657,1.2327,-7.6792,-0.7772,4.5167,-0.582596,0,1698647671,5
-0.3286,0.1975,0.0274,0.5221,-0.5771,-0.5757,0.1398,0.5947,10.0397,-1.5411,0.0711,0.0643,1.124,-8.2717,4.0074,-0.2129,-0.4238,0.89,1.2706,-7.6616,-0.82,4.571,-0.674238,0,1698647671,6
-0.322,0.3502,0.0315,0.5062,-0.5971,-0.4469,0.0733,0.8056,9.7761,-1.4621,-0.1437,0.0496,1.0404,-8.4024,4.0011,-0.16,-0.5115,0.68,1.2966,-7.6933,-0.876,4.6612,-0.743651,0,1698647671,6
-0.3135,0.4785,0.0369,0.5252,-0.5939,-0.4995,0.0191,0.7265,9.7205,-1.4059,-0.3037,0.0382,0.9857,-8.5253,4.0115,-0.081,-0.4756,0.4726,1.2802,-7.7228,-0.9176,4.8262,-0.794265,0,1698647671,7
-0.3032,0.5762,0.0433,0.5723,-0.542,-0.4329,-0.0195,0.7717,9.812,-1.4542,-0.4084,0.0191,0.9561,-8.6267,4.0308,0.0157,-0.2859,0.2255,1.2402,-7.7364,-0.9609,4.9629,-0.832734,0,1698647671,8
-0.2913,0.7023,0.0506,0.5971,-0.4386,-0.3045,-0.0521,0.8953,9.9312,-1.4856,-0.4598,-0.011,0.95,-8.6998,4.0632,0.0838,-0.089,0.0318,1.1657,-7.7217,-0.9562,5.0773,-0.864733,0,1698647671,9
-0.2797,0.8219,0.0585,0.5917,-0.3345,-0.1417,-0.0613,1.0105,9.8313,-1.4321,-0.5083,-0.0541,0.9513,-8.7596,4.099,0.1239,-0.0708,-0.0521,1.0694,-7.6925,-0.9249,5.1571,-0.891636,0,1698647671,10
-0.2698,0.8962,0.0656,0.6201,-0.2544,0.0274,-0.0539,1.0963,9.7182,-1.3089,-0.5784,-0.1122,0.9506,-8.8092,4.1258,0.135,-0.2748,-0.0841,1.0074,-7.6628,-0.8903,5.1993,-0.913887,0,1698647671,10
-0.2606,0.9032,0.0724,0.6466,-0.1351,0.1553,-0.0387,1.1444,9.7717,-1.1351,-0.643,-0.1684,0.9475,-8.8362,4.1452,0.1102,-0.6063,-0.1311,0.9925,-7.6358,-0.8606,5.2123,-0.931224,0,1698647671,11
-0.2528,0.877,0.079,0.6245,0.0538,0.2802,-0.0023,1.2249,9.8106,-0.953,-0.7026,-0.2096,0.9272,-8.8302,4.1593,0.076,-0.954,-0.1719,1.0031,-7.614,-0.858,5.1818,-0.943958,0,1698647671,12
-0.2467,0.8058,0.0843,0.5877,0.169,0.4122,0.0491,1.2807,9.9734,-0.8263,-0.7659,-0.233,0.8765,-8.8237,4.1656,0.0211,-1.2352,-0.2044,1.0122,-7.5949,-0.8815,5.1397,-0.952668,0,1698647671,13
-0.243,0.6916,0.0884,0.551,0.1699,0.5113,0.1043,1.1813,10.2503,-0.7397,-0.8339,-0.2622,0.7903,-8.8494,4.1858,-0.0545,-1.4187,-0.2586,1.0064,-7.6092,-0.921,5.1198,-0.955397,0,1698647671,14
-0.2416,0.5693,0.092,0.4997,0.1766,0.6206,0.3593,1.0392,10.3871,-0.7192,-0.9139,-0.3225,0.6849,-8.9059,4.2103,-0.1067,-1.505,-0.3493,0.9713,-7.6695,-0.982,5.099,-0.949517,0,1698647671,15
-0.2416,0.4435,0.095,0.4374,0.1613,0.784,0.5344,0.9966,10.3504,-0.7123,-0.988,-0.4093,0.5784,-8.9972,4.2154,-0.177,-1.5064,-0.5135,0.9193,-7.7762,-1.0595,5.0726,-0.93733,0,1698647671,15
-0.2417,0.3462,0.0973,0.3748,0.0991,0.9884,0.4242,1.0053,10.4635,-0.6941,-1.0507,-0.5245,0.476,-9.1316,4.2421,-0.3489,-1.4154,-0.7842,0.8661,-7.9809,-1.1441,5.0602,-0.931469,0,1698647671,16
-0.2417,0.2749,0.0988,0.3072,0.1241,1.1761,0.3062,0.9204,10.9627,-0.6373,-1.1309,-0.6923,0.4059,-9.3505,4.3476,-0.5567,-1.2178,-1.1538,0.8078,-8.3522,-1.2081,5.1211,-0.939169,0,1698647671,17
-0.2416,0.2147,0.0995,0.2213,0.1333,1.3467,0.2511,0.6606,11.6717,-0.5068,-1.1386,-0.8508,0.4119,-9.6824,4.5375,-0.6975,-0.9561,-1.5534,0.7275,-8.8538,-1.1951,5.3077,-0.951733,0,1698647671,18
-0.2414,0.1664,0.0996,0.1587,-0.0317,1.4587,0.326,0.156,12.5065,-0.469,-0.9538,-0.841,0.5129,-10.0817,4.7825,-0.746,-0.6224,-1.9166,0.5919,-9.387,-1.0978,5.6605,-0.962268,0,1698647671,19
-0.2406,0.1445,0.0993,0.1199,-0.2647,1.2696,0.5256,-0.4585,13.0108,-0.3675,-0.6304,-0.7243,0.6672,-10.5125,5.0528,-0.7291,-0.2593,-2.2447,0.4277,-9.8637,-0.8964,6.1252,-0.970389,0,1698647671,19
-0.2381,0.1942,0.0986,0.0836,-0.4754,1.1108,0.7599,-0.9019,13.0602,-0.1428,-0.4005,-0.741,0.7649,-10.9328,5.3525,-0.7978,0.0714,-2.6513,0.2926,-10.2778,-0.7316,6.516,-0.976279,0,1698647671,20
-0.2331,0.293,0.0976,0.0222,-0.6545,1.2644,1.0075,-1.1894,12.8227,0.1414,-0.464,-0.9091,0.7231,-11.2883,5.6887,-1.0099,0.318,-2.979,0.1578,-10.6876,-0.6921,6.6835,-0.980731,0,1698647671,21
-0.227,0.3715,0.095,-0.0936,-0.7032,1.3547,1.2646,-1.4886,13.0379,0.295,-0.7229,-1.0831,0.5663,-11.5968,5.9937,-1.2711,0.3987,-2.96,-0.0313,-11.0265,-0.6687,6.6177,-0.984457,0,1698647671,22
-0.221,0.4198,0.0887,-0.2575,-0.442,1.3635,1.4336,-1.4874,13.6612,0.359,-0.9692,-1.1825,0.3525,-11.8011,6.1756,-1.5251,0.4734,-2.6529,-0.3213,-11.1681,-0.5951,6.3852,-0.987579,0,1698647672,23
-0.2159,0.4223,0.0792,-0.4257,-0.0499,1.3627,1.5145,-1.0831,13.7035,0.5875,-1.1698,-1.2077,0.0815,-11.7947,6.2393,-1.7052,0.5893,-2.1843,-0.6387,-11.152,-0.422,6.0917,-0.990107,0,1698647672,23
-0.212,0.3882,0.0681,-0.6067,0.1763,1.4064,1.5008,-0.6785,13.25,0.784,-1.3922,-1.1778,-0.2653,-11.5673,6.2252,-1.789,0.5617,-1.6286,-0.8672,-11.0365,-0.1897,5.7916,-0.991961,0,1698647672,24
-0.2085,0.363,0.0555,-0.8191,0.2497,1.5059,1.3477,-0.4164,12.7553,0.8463,-1.6501,-1.0677,-0.6897,-11.1629,6.141,-1.8573,0.3316,-1.0138,-1.0081,-10.8122,0.0166,5.411,-0.993338,0,1698647672,25
-0.204,0.3947,0.0416,-0.9922,0.3152,1.602,1.0815,-0.2026,12.4073,0.8489,-1.9595,-0.8169,-1.1626,-10.6046,5.9906,-1.9066,-0.091,-0.3802,-1.0639,-10.4909,0.1588,4.955,-0.994457,0,1698647672,26
-0.1974,0.4878,0.0271,-1.1296,0.3627,1.7439,0.7587,0.0284,11.9246,0.9245,-2.3097,-0.4124,-1.6048,-9.9138,5.8164,-1.8703,-0.7293,0.2456,-1.0577,-10.0601,0.2542,4.4327,-0.995238,0,1698647672,27
-0.1878,0.6281,0.0109,-1.2106,0.2411,1.9172,0.3709,0.1952,11.4297,0.9442,-2.6363,0.0782,-1.9594,-9.1791,5.6144,-1.778,-1.4945,0.771,-1.0027,-9.5895,0.3245,3.8672,-0.995998,0,1698647672,27
-0.1758,0.7718,-0.0066,-1.3021,-0.0008,2.1711,-0.0361,0.3302,11.08,0.8178,-2.942,0.5615,-2.2204,-8.4599,5.3785,-1.7213,-2.2064,1.0878,-0.8918,-9.1414,0.3762,3.3499,-0.988869,0,1698647672,28
-0.1634,0.9001,-0.0228,-1.3974,-0.1938,2.4527,-0.3922,0.4575,10.7984,0.7376,-3.2586,0.9701,-2.3873,-7.7567,5.1257,-1.7764,-2.8317,1.2146,-0.7374,-8.7179,0.418,2.9299,-0.874562,0,1698647672,29
-0.1518,1.0174,-0.0383,-1.4823,-0.1869,2.645,-0.6936,0.5381,10.4082,0.916,-3.606,1.244,-2.4751,-7.1589,4.8989,-1.8964,-3.3678,1.1299,-0.5093,-8.3396,0.47,2.6154,-0.592266,0,1698647672,30
-0.1407,1.0919,-0.0554,-1.5721,-0.0665,2.7109,-0.9242,0.3947,9.9581,1.2343,-3.9048,1.4108,-2.4786,-6.7312,4.6931,-1.9693,-3.7867,0.7479,-0.1728,-8.0272,0.4847,2.4062,-0.263383,0,1698647672,31
-0.1301,1.0682,-0.0739,-1.596,-0.0292,2.7416,-1.0957,0.0054,9.5897,1.404,-4.073,1.4585,-2.5938,-6.4479,4.4924,-1.98,-4.0899,0.1291,0.23,-7.7836,0.448,2.2982,0.004152,0,1698647672,31
-0.121,0.9756,-0.0921,-1.653,-0.1827,2.843,-1.2059,-0.3892,9.1855,1.4569,-4.1934,1.3899,-2.604,-6.2858,4.3027,-1.9313,-4.2513,-0.585,0.6128,-7.6042,0.3954,2.263,0.188743,0,1698647672,32
-0.1127,0.9268,-0.1108,-1.7227,-0.4509,2.9481,-1.2514,-0.7463,8.8178,1.5028,-4.2315,1.242,-2.3009,-6.2097,4.09,-1.8634,-4.2676,-1.3442,0.9596,-7.4887,0.326,2.3086,0.236478,0,1698647672,33
-0.1049,0.9078,-0.1289,-1.7316,-0.771,3.0639,-1.297,-1.0717,8.7001,1.415,-4.0932,1.0308,-1.9488,-6.2267,3.8948,-1.7892,-4.1089,-2.0848,1.2843,-7.412,0.2307,2.4367,0.261687,0,1698647672,34
-0.0976,0.9024,-0.1475,-1.7915,-0.8875,3.1061,-1.3529,-1.337,8.5704,1.3335,-3.8282,0.7842,-1.6113,-6.3495,3.7517,-1.6874,-3.8016,-2.6966,1.5536,-7.3656,0.1363,2.5905,0.385039,0,1698647672,35
-0.09,0.897,-0.1666,-1.8347,-0.8092,3.0179,-1.3664,-1.5643,8.2083,1.4572,-3.5337,0.5176,-1.3236,-6.54,3.7005,-1.6095,-3.3993,-3.1344,1.7388,-7.3758,0.075,2.8081,0.520286,0,1698647672,35
-0.0826,0.8669,-0.1846,-1.7711,-0.826,2.9511,-1.3139,-1.7292,7.8703,1.5833,-3.2742,0.3054,-1.101,-6.7979,3.7662,-1.5591,-2.9266,-3.3482,1.8197,-7.4486,0.0277,3.0754,0.626393,0,1698647672,36
-0.0755,0.835,-0.2013,-1.6932,-0.8288,2.8813,-1.2441,-1.8622,7.7161,1.6464,-3.0284,0.2488,-0.946,-7.0928,3.9293,-1.49,-2.4325,-3.2919,1.7513,-7.5576,0,3.3315,0.708655,0,1698647672,37
-0.0685,0.8073,-0.2164,-1.6307,-0.7457,2.7955,-1.1712,-1.8749,7.8125,1.6255,-2.8349,0.3923,-0.8785,-7.3437,4.1837,-1.4067,-2.0419,-3.0181,1.5762,-7.6647,0.0651,3.6287,0.772135,0,1698647672,38
-0.0614,0.8109,-0.2298,-1.5552,-0.5951,2.7374,-1.1111,-1.777,8.0101,1.49,-2.7153,0.6862,-0.8907,-7.5293,4.4904,-1.3201,-1.9251,-2.5975,1.3883,-7.7762,0.225,3.937,0.820038,0,1698647672,39
-0.0539,0.81,-0.2422,-1.4754,-0.4177,2.7281,-1.0858,-1.6507,8.0989,1.292,-2.688,1.0286,-0.9548,-7.6609,4.7687,-1.2333,-2.0875,-2.1081,1.2347,-7.8861,0.3791,4.1851,0.822957,0,1698647672,40
-0.0466,0.7751,-0.254,-1.4282,-0.2424,2.6842,-1.0737,-1.5291,8.2512,1.1599,-2.7913,1.3236,-1.0481,-7.7276,4.9814,-1.1744,-2.4284,-1.6086,1.1375,-7.973,0.497,4.3369,0.737963,0,1698647672,40
-0.0398,0.7413,-0.2658,-1.4115,0.0165,2.5462,-1.1045,-1.5282,8.5852,1.0968,-2.9822,1.6072,-1.1512,-7.7112,5.0952,-1.1445,-2.844,-1.1422,1.0893,-8.0355,0.5626,4.4024,0.65082,0,1698647672,41
-0.0335,0.6967,-0.2775,-1.3981,0.2816,2.4645,-1.1599,-1.5096,8.7391,0.9957,-3.1979,1.9315,-1.2636,-7.6421,5.1048,-1.1233,-3.2614,-0.7408,1.0834,-8.0479,0.5566,4.4023,0.632127,0,1698647672,42
-0.0282,0.6487,-0.2887,-1.3353,0.3698,2.4164,-1.2242,-1.4259,8.8485,0.8987,-3.3304,2.2763,-1.3629,-7.5523,5.0404,-1.0962,-3.6299,-0.4077,1.1086,-7.9803,0.4897,4.3321,0.635929,0,1698647672,43
-0.0239,0.5934,-0.3,-1.2779,0.4383,2.3348,-1.3415,-1.4655,9.0777,0.8089,-3.3516,2.6071,-1.4596,-7.4548,4.9406,-1.0642,-3.894,-0.16,1.1504,-7.8412,0.403,4.2415,0.590875,0,1698647672,44
-0.0201,0.5275,-0.311,-1.2535,0.4933,2.2773,-1.4871,-1.3799,9.0923,0.7055,-3.3186,2.8624,-1.5774,-7.3761,4.8193,-1.0426,-4.0062,-0.0196,1.1999,-7.6615,0.3126,4.1862,0.464372,0,1698647672,44
-0.0163,0.4892,-0.3219,-1.2277,0.484,2.2037,-1.6224,-1.3321,9.2072,0.5579,-3.3194,3.0666,-1.7208,-7.2944,4.6668,-1.0426,-4.0142,0.0979,1.2502,-7.464,0.2066,4.1656,0.259628,0,1698647672,45
-0.0131,0.4563,-0.3322,-1.1949,0.2893,2.1474,-1.7292,-1.3087,9.1183,0.5429,-3.3174,3.2125,-1.8262,-7.2184,4.5115,-1.0301,-3.9164,0.2847,1.2646,-7.2737,0.0986,4.1496,0.041082,0,1698647672,46
-0.0106,0.4086,-0.342,-1.1326,-0.0367,2.1241,-1.7789,-1.3711,8.8313,0.6106,-3.252,3.2636,-1.8774,-7.1884,4.3892,-0.9987,-3.716,0.3394,1.2818,-7.1117,0.0068,4.1578,0.006152,0,1698647672,47
-0.0079,0.3914,-0.3517,-1.08,-0.1705,2.1614,-1.803,-1.4491,8.6999,0.5796,-3.1841,3.2496,-1.9062,-7.2045,4.3001,-0.9609,-3.5075,0.1808,1.3641,-7.0072,-0.0603,4.1951,0.162633,0,1698647672,48
-0.0032,0.4415,-0.3609,-1.0183,-0.231,2.2202,-1.8217,-1.2421,8.4692,0.5194,-3.1187,3.1466,-1.8935,-7.2661,4.2342,-0.9121,-3.2407,-0.0037,1.4579,-6.9889,-0.1363,4.2236,0.342225,0,1698647672,48
0.0032,0.5062,-0.3682,-0.9035,-0.3028,2.2403,-1.7681,-1.2008,8.3309,0.3889,-3.0533,2.9943,-1.8445,-7.3309,4.1885,-0.8888,-2.9424,-0.1454,1.5478,-7.0035,-0.1687,4.296,0.486043,0,1698647672,49
0.0101,0.5728,-0.3732,-0.7966,-0.269,2.2346,-1.6378,-1.2406,8.4352,0.2585,-2.9633,2.8614,-1.7476,-7.4039,4.156,-0.9005,-2.6441,-0.2818,1.6006,-7.0106,-0.1512,4.4575,0.598981,0,1698647672,50
0.018,0.6568,-0.3773,-0.7166,-0.201,2.2327,-1.4582,-1.2426,8.6375,0.1997,-2.8244,2.7208,-1.6187,-7.498,4.1706,-0.9253,-2.4432,-0.3758,1.5904,-7.0362,-0.0545,4.6805,0.686157,0,1698647672,51
0.0268,0.7219,-0.3808,-0.6173,-0.2172,2.2517,-1.2574,-1.2888,8.8153,0.096,-2.6637,2.5544,-1.4972,-7.6021,4.2322,-0.9242,-2.4549,-0.4259,1.5775,-7.0972,0.084,4.9173,0.750654,0,1698647672,52
0.0363,0.7954,-0.3832,-0.4977,-0.2929,2.275,-1.04,-1.3608,8.8141,0.0534,-2.532,2.3877,-1.4072,-7.7161,4.3201,-0.8897,-2.5894,-0.4358,1.5435,-7.1841,0.1322,5.1307,0.796763,0,1698647672,52
0.0461,0.8435,-0.3839,-0.3802,-0.4402,2.3391,-0.8107,-1.4657,8.6897,0.0671,-2.4349,2.2207,-1.3397,-7.8183,4.4164,-0.8223,-2.7432,-0.3497,1.449,-7.2599,0.1296,5.3253,0.814564,0,1698647672,53
0.0556,0.8847,-0.384,-0.2858,-0.5786,2.3505,-0.6087,-1.5845,8.5821,0.1064,-2.3415,2.0526,-1.2755,-7.8784,4.4872,-0.752,-2.8175,-0.236,1.2997,-7.2996,0.1265,5.4794,0.744317,0,1698647672,54
0.0651,0.913,-0.3839,-0.2107,-0.6537,2.2546,-0.4433,-1.7474,8.6383,0.1844,-2.2409,1.894,-1.2153,-7.9007,4.5473,-0.7154,-2.7986,-0.1264,1.1224,-7.3031,0.1371,5.5798,0.535864,0,1698647672,55
0.0747,0.8904,-0.3838,-0.1596,-0.7427,2.1281,-0.3182,-1.9418,8.7884,0.1438,-2.1227,1.7588,-1.1601,-7.9133,4.5996,-0.6917,-2.7353,-0.0174,0.9531,-7.2807,0.1591,5.6722,0.275311,0,1698647672,56
0.0836,0.8584,-0.3837,-0.1241,-0.8578,2.0026,-0.2083,-2.1176,8.8771,0.0566,-2.0053,1.6487,-1.1146,-7.9228,4.6215,-0.6781,-2.6886,0.0852,0.8097,-7.2254,0.1793,5.7724,0.052076,0,1698647672,56
0.0913,0.8212,-0.3835,-0.0739,-1.0759,1.8702,-0.1323,-2.2734,8.9704,-0.0403,-1.903,1.5692,-1.0827,-7.9321,4.6115,-0.6734,-2.6524,0.1879,0.6975,-7.1389,0.172,5.8715,-0.13722,0,1698647672,57
0.0984,0.7732,-0.3831,-0.0151,-1.3604,1.7085,-0.0945,-2.4453,9.0064,-0.1636,-1.8032,1.5202,-1.0604,-7.943,4.5773,-0.6685,-2.58,0.283,0.5993,-7.0441,0.137,5.9534,-0.295954,0,1698647672,58
0.1046,0.7151,-0.3817,0.05,-1.5864,1.4517,-0.1001,-2.6383,9.271,-0.2925,-1.6779,1.4915,-1.0389,-7.9614,4.5104,-0.6726,-2.3865,0.3372,0.4838,-6.9574,0.0718,6.0057,-0.42807,0,1698647672,59
0.1097,0.6641,-0.3791,0.118,-1.8387,1.2173,-0.1181,-2.7784,9.3942,-0.4015,-1.5047,1.4769,-1.0248,-7.9954,4.4253,-0.6777,-1.9874,0.3104,0.3438,-6.8992,-0.0189,6.0207,-0.537785,0,1698647672,60
0.1141,0.6051,-0.3753,0.2,-2.0108,0.9696,-0.1228,-2.9345,9.2116,-0.464,-1.2961,1.4612,-1.0316,-8.0339,4.3511,-0.6836,-1.4354,0.2068,0.2035,-6.8903,-0.1289,5.9864,-0.628095,0,1698647672,60
0.1176,0.5432,-0.3697,0.3043,-1.9987,0.634,-0.1153,-3.0886,8.9886,-0.4598,-1.053,1.4261,-1.0489,-8.0822,4.2922,-0.6988,-0.8422,0.0685,0.0562,-6.9392,-0.2253,5.9273,-0.704779,0,1698647672,61
0.1199,0.4728,-0.3624,0.4204,-1.9008,0.3546,-0.0924,-3.087,8.8599,-0.5248,-0.7629,1.3673,-1.0538,-8.1518,4.2496,-0.7141,-0.2791,-0.0885,-0.1204,-7.0315,-0.2647,5.87,-0.76919,0,1698647672,62
0.1217,0.4206,-0.3542,0.5248,-1.6977,0.0695,-0.0883,-3.0349,9.0086,-0.6607,-0.4761,1.2867,-1.0576,-8.2607,4.2462,-0.7495,0.1787,-0.241,-0.3062,-7.1459,-0.2546,5.814,-0.8203,0,1698647672,63
0.1237,0.3914,-0.3452,0.6192,-1.2664,-0.2756,-0.0655,-2.9678,8.7047,-0.6605,-0.2057,1.109,-1.0512,-8.4137,4.2952,-0.8051,0.4831,-0.3799,-0.4616,-7.2885,-0.2104,5.7887,-0.859475,0,1698647672,64
0.1261,0.3612,-0.3362,0.6785,-0.8462,-0.5735,-0.0367,-2.7745,8.1811,-0.5836,0.0385,0.8449,-1.0309,-8.5565,4.3923,-0.8963,0.6241,-0.5109,-0.5729,-7.4648,-0.1162,5.8273,-0.883228,0,1698647672,65
0.1294,0.3627,-0.3279,0.7183,-0.455,-0.8363,0.0394,-2.7152,7.8412,-0.4817,0.2639,0.5596,-1.0075,-8.6897,4.5257,-1.0252,0.6306,-0.6322,-0.6696,-7.6485,-0.0083,5.8808,-0.894046,0,1698647672,65
0.133,0.368,-0.3206,0.7216,0.0738,-1.1471,0.1709,-2.7612,7.8285,-0.4487,0.5421,0.2196,-0.9373,-8.845,4.6638,-1.1299,0.5929,-0.7716,-0.7566,-7.831,0.0899,5.9325,-0.904749,0,1698647672,66
0.1358,0.3367,-0.3154,0.6634,0.5425,-1.4549,0.3259,-2.7407,8.39,-0.5808,0.8596,-0.2201,-0.8009,-9.0185,4.7997,-1.2483,0.6455,-0.9361,-0.8242,-8.0668,0.143,5.9657,-0.910868,0,1698647672,67
0.137,0.2677,-0.312,0.5829,0.9108,-1.7212,0.5008,-2.7799,9.168,-0.6425,1.1803,-0.7013,-0.6328,-9.1982,4.9357,-1.5274,0.9531,-1.1397,-0.9074,-8.4159,0.0698,5.9393,-0.909131,0,1698647672,68
0.1371,0.2052,-0.3093,0.5042,1.1781,-1.9511,0.6119,-2.7205,9.9722,-0.4288,1.5582,-1.099,-0.4332,-9.4971,5.0889,-1.7848,1.5406,-1.4018,-1.0742,-8.8355,-0.114,5.8636,-0.87565,0,1698647672,69
0.137,0.1628,-0.3067,0.4467,1.3994,-2.1638,0.5926,-2.4538,10.8294,-0.0664,2.0434,-1.4061,-0.1827,-9.9117,5.2146,-1.8741,2.3062,-1.6395,-1.3606,-9.2281,-0.3207,5.7994,-0.774137,0,1698647672,69
0.1367,0.1139,-0.3044,0.4036,1.5533,-2.392,0.4029,-2.1123,11.8087,0.2072,2.6017,-1.5229,0.1311,-10.2627,5.2555,-1.9293,3.0585,-1.7576,-1.7092,-9.5706,-0.4665,5.8195,-0.649771,0,1698647672,70
0.1351,0.019,-0.3017,0.3869,1.8885,-2.4951,0.143,-1.8275,12.8842,0.0914,2.9127,-1.5701,0.3391,-10.5679,5.282,-1.9056,3.5449,-1.8025,-1.9859,-9.9119,-0.5453,5.9215,-0.545148,0,1698647672,71
0.1296,-0.1698,-0.2972,0.3909,1.8885,-2.4951,0.143,-1.8275,12.8842,0.0914,2.9127,-1.5701,0.3391,-10.5679,5.282,-1.9056,3.5449,-1.8025,-1.9859,-9.9119,-0.5453,5.9215,-0.447425,0,1698647672,72
0.1187,-0.3965,-0.2904,0.4032,2.291,-2.3027,-0.1929,-1.0223,13.3289,0.0136,2.2347,-1.5946,0.1737,-10.9657,5.1769,-1.971,3.4685,-1.5425,-2.0374,-10.5267,-0.7216,6.1581,-0.352545,0,1698647672,73
0.1035,-0.6392,-0.2843,0.4078,2.2895,-2.3315,-0.2499,-1.0657,12.2053,0.787,1.3407,-1.126,-0.0725,-10.9042,4.5614,-2.1659,3.0061,-0.981,-1.8084,-10.5759,-0.9567,6.2882,-0.270204,0,1698647672,73
0.0865,-0.8666,-0.281,0.3658,2.2516,-2.53,-0.2839,-1.3468,11.7497,1.0913,1.1459,-0.834,-0.1378,-10.7433,4.1701,-2.2909,2.5992,-0.4988,-1.7093,-10.3063,-1.0738,6.1736,-0.205679,0,1698647672,74
0.0697,-1.0518,-0.2796,0.3072,2.3261,-2.7702,-0.3248,-1.5611,11.3056,1.2333,1.1914,-0.5587,-0.1203,-10.4968,3.7245,-2.3824,2.0419,0.1024,-1.675,-9.8614,-1.2597,5.945,-0.151166,0,1698647672,75
0.0477,-1.246,-0.276,0.33,2.2331,-2.9363,-0.2986,-1.5953,10.7505,1.2717,1.4338,-0.3363,-0.0445,-10.1748,3.2543,-2.4516,1.5571,0.6597,-1.7165,-9.3673,-1.5382,5.6461,-0.117348,0,1698647672,76
0.0243,-1.3851,-0.2686,0.4367,1.7671,-3.1301,-0.2075,-1.6149,9.9896,1.4234,1.8343,-0.2019,0.0706,-9.8387,2.7996,-2.493,1.2743,1.0338,-1.7623,-8.919,-1.8585,5.341,-0.156192,0,1698647672,77
0.0036,-1.5056,-0.2581,0.5931,0.9708,-3.7379,0.0442,-1.9605,9.9681,1.2811,3.0894,-0.4905,0.45,-9.416,2.0063,-2.5718,1.5225,1.0883,-1.7845,-8.2895,-2.4832,4.7665,-0.267558,0,1698647672,77
-0.0189,-1.6791,-0.2447,0.7455,0.8166,-4.1115,0.132,-2.0306,10.3048,1.1728,3.8148,-0.9122,0.747,-9.3244,1.6793,-2.5832,2.0365,0.8315,-1.8322,-8.0982,-2.7136,4.5546,-0.385954,0,1698647672,78
-0.0412,-1.7811,-0.2311,0.8622,0.7146,-4.4434,0.19,-1.9231,10.4922,1.1621,4.5103,-1.4298,1.1047,-9.2238,1.4912,-2.5541,2.7042,0.517,-1.9809,-7.9395,-2.8196,4.3983,-0.502199,0,1698647672,79
-0.0612,-1.8574,-0.2191,0.9381,0.6022,-4.7362,0.2299,-1.6498,10.421,1.2111,5.117,-1.9554,1.4626,-9.1062,1.4772,-2.4457,3.4384,0.2046,-2.2072,-7.7935,-2.7616,4.32,-0.613272,0,1698647672,80
-0.0798,-1.9123,-0.2079,0.9755,0.4603,-4.9781,0.2558,-1.1978,10.4053,1.1545,5.5635,-2.4421,1.7755,-9.0121,1.5805,-2.28,4.1655,-0.0492,-2.458,-7.6624,-2.5501,4.3385,-0.699616,0,1698647672,81
-0.098,-1.8987,-0.1976,0.9726,0.3459,-5.0637,0.3313,-0.6062,10.3482,1.0279,5.8055,-2.9027,2.005,-8.939,1.8114,-2.144,4.7387,-0.2054,-2.6715,-7.5729,-2.266,4.3956,-0.766683,0,1698647672,81
-0.1162,-1.8463,-0.1878,0.9709,0.2076,-4.9828,0.4531,0.0095,10.1929,0.9633,5.869,-3.3372,2.1363,-8.8708,2.1594,-2.0721,5.046,-0.4631,-2.8169,-7.5408,-1.9673,4.4691,-0.818772,0,1698647672,82
-0.1338,-1.7587,-0.1785,0.9846,0.0916,-4.8185,0.5885,0.5379,9.9622,0.9714,5.7974,-3.673,2.1667,-8.7806,2.5329,-2.0307,5.1031,-0.5627,-2.9068,-7.5653,-1.7067,4.5329,-0.85901,0,1698647672,83
-0.1505,-1.7152,-0.1694,1.0075,0.0288,-4.6671,0.7201,0.9048,9.8043,0.9926,5.6548,-3.806,2.1018,-8.6443,2.8623,-1.9715,4.9787,-0.3034,-2.9622,-7.6172,-1.5155,4.5467,-0.872895,0,1698647672,84
-0.1666,-1.6548,-0.1605,1.0386,-0.0438,-4.3901,0.8343,1.128,9.6074,1.0072,5.4716,-3.7389,1.9661,-8.5256,3.1443,-1.8155,4.7432,0.0241,-2.9915,-7.634,-1.4266,4.5261,-0.856687,0,1698647672,85
-0.1822,-1.5642,-0.1515,1.0073,-0.0438,-4.3901,0.8343,1.128,9.6074,1.0072,5.4716,-3.7389,1.9661,-8.5256,3.1443,-1.8155,4.7432,0.0241,-2.9915,-7.634,-1.4266,4.5261,-0.844013,0,1698647672,85
-0.1967,-1.5519,-0.1423,0.9605,0.0189,-3.7052,1.0818,1.3036,9.1249,1.1452,5.1478,-3.3563,1.6777,-8.2761,3.3343,-1.4205,4.135,0.7532,-2.9905,-7.4847,-1.4514,4.2478,-0.831086,0,1698647672,86
-0.2105,-1.5324,-0.1328,0.9615,0.0189,-3.7052,1.0818,1.3036,9.1249,1.1452,5.1478,-3.3563,1.6777,-8.2761,3.3343,-1.4205,4.135,0.7532,-2.9905,-7.4847,-1.4514,4.2478,-0.833432,0,1698647672,87
-0.2233,-1.4423,-0.1231,0.9597,0.1854,-3.1062,1.278,1.1718,8.8347,1.3204,4.93,-2.9613,1.5409,-8.0233,3.2289,-1.1726,3.826,1.4855,-3.0044,-7.2167,-1.535,3.905,-0.865504,0,1698647672,88
-0.2352,-1.3667,-0.1126,0.9315,0.1928,-2.7703,1.3605,1.1256,8.8313,1.2995,4.7877,-2.8544,1.4665,-7.8802,3.122,-1.1538,3.7473,1.7698,-2.9919,-7.1,-1.5444,3.8031,-0.895484,0,1698647672,89
-0.2468,-1.318,-0.1018,0.9465,0.1032,-2.4038,1.4297,1.1335,8.8166,1.1935,4.5501,-2.8097,1.3371,-7.7226,3.0187,-1.145,3.6887,1.9455,-2.9243,-7.0139,-1.5012,3.7352,-0.853282,0,1698647672,90
-0.2572,-1.2349,-0.0915,0.9635,0.0395,-2.1319,1.4544,1.0961,8.9039,1.1095,4.1824,-2.7673,1.131,-7.5988,2.9833,-1.0882,3.6961,1.995,-2.813,-6.9546,-1.4572,3.6601,-0.73442,0,1698647672,90
-0.2662,-1.1185,-0.0815,0.9241,0.042,-1.9079,1.4387,1.0772,8.9922,1.0911,3.8456,-2.7377,0.9794,-7.508,2.9328,-1.015,3.7248,1.8681,-2.614,-6.9263,-1.4184,3.592,-0.585035,0,1698647672,91
-0.2741,-1.0285,-0.0727,0.891,0.2971,-1.6896,1.3933,1.0925,9.0127,1.0461,3.5789,-2.7012,0.8829,-7.4663,2.9131,-0.9174,3.7343,1.6332,-2.3394,-6.9282,-1.3686,3.5352,-0.380803,0,1698647672,92
-0.281,-0.9704,-0.0657,0.8558,0.4603,-1.4681,1.3205,1.1036,9.1067,0.9624,3.3522,-2.6523,0.8191,-7.4604,2.9296,-0.8168,3.7229,1.5138,-2.1217,-6.974,-1.3336,3.5001,-0.159676,0,1698647672,93
-0.288,-0.905,-0.0594,0.7988,0.322,-1.2995,1.2393,1.0793,9.1201,0.9261,3.2161,-2.6093,0.8309,-7.4617,2.943,-0.7336,3.5991,1.566,-1.9885,-7.0655,-1.3065,3.5389,0.027228,0,1698647672,94
-0.2946,-0.8255,-0.0538,0.7266,0.2342,-1.1898,1.1489,1.0227,9.0233,0.8818,3.0576,-2.5111,0.8358,-7.4986,3.0103,-0.6265,3.254,1.707,-1.8637,-7.1651,-1.2541,3.6313,0.177148,0,1698647672,94
-0.3005,-0.7505,-0.0497,0.6461,0.1259,-1.0688,1.0438,0.9208,9.0845,0.764,2.8484,-2.3444,0.8387,-7.5467,3.0971,-0.5176,2.7193,1.8686,-1.6918,-7.2663,-1.2121,3.7643,0.292377,0,1698647672,95
-0.3061,-0.6886,-0.0464,0.5721,0.0111,-0.9518,0.9382,0.8031,9.0887,0.6701,2.6586,-2.0838,0.8376,-7.5838,3.1634,-0.4079,2.1233,1.9591,-1.4398,-7.3572,-1.1786,3.9224,0.332226,0,1698647672,96
-0.3111,-0.6131,-0.043,0.5224,-0.1061,-0.8566,0.8512,0.7171,8.8818,0.5728,2.4567,-1.7808,0.829,-7.6284,3.255,-0.2888,1.4984,1.9647,-1.0949,-7.4302,-1.104,4.0572,0.199595,0,1698647672,97
-0.3148,-0.5284,-0.0389,0.5034,-0.1265,-0.8151,0.8108,0.5206,8.5905,0.4326,2.1865,-1.4594,0.8173,-7.6622,3.3446,-0.173,0.8256,1.9341,-0.6575,-7.4735,-1.0378,4.2114,-0.042362,0,1698647672,98
-0.3172,-0.4473,-0.0349,0.4888,-0.1005,-0.6934,0.8084,0.4122,8.3915,0.2735,1.8642,-1.162,0.7843,-7.662,3.3856,-0.0726,0.1454,1.9802,-0.2291,-7.4473,-1.0518,4.2998,-0.254872,0,1698647672,98
-0.3186,-0.3652,-0.0317,0.461,-0.1085,-0.5742,0.804,0.3848,8.363,0.1538,1.4596,-0.8833,0.6914,-7.6223,3.4342,-0.0209,-0.4103,2.0807,0.1275,-7.3828,-1.1231,4.2787,-0.421133,0,1698647672,99
-0.319,-0.2841,-0.0289,0.4269,-0.1488,-0.5148,0.8193,0.2775,8.4179,0.0377,1.0464,-0.6046,0.5953,-7.6035,3.4771,-0.0216,-0.6765,2.1009,0.4292,-7.3533,-1.1844,4.2875,-0.550069,0,1698647672,0
-0.3189,-0.2014,-0.026,0.4192,-0.1519,-0.4976,0.8534,0.1159,8.4573,-0.0296,0.7784,-0.3856,0.5735,-7.6501,3.4883,-0.0432,-0.6797,2.0237,0.6525,-7.3414,-1.2127,4.3047,-0.649956,0,1698647672,1
-0.3188,-0.1585,-0.0226,0.4291,-0.0675,-0.5516,0.8551,0.0408,8.3861,-0.043,0.6255,-0.2751,0.6171,-7.748,3.4857,-0.0622,-0.585,1.8282,0.8166,-7.3278,-1.2331,4.3507,-0.727644,0,1698647673,2
-0.3187,-0.1167,-0.0185,0.4454,0.0092,-0.6072,0.8096,0.0587,8.4516,-0.1436,0.5716,-0.2626,0.7337,-7.8888,3.4602,-0.0574,-0.4688,1.5179,0.938,-7.339,-1.246,4.4767,-0.788205,0,1698647673,2
-0.3181,-0.0504,-0.0137,0.4824,0.0279,-0.6358,0.7581,0.0293,8.87,-0.4023,0.603,-0.3074,0.8932,-8.0684,3.4475,-0.0098,-0.3555,1.1566,1.0162,-7.3703,-1.2502,4.6794,-0.835311,0,1698647673,3
-0.316,0.0227,-0.0082,0.517,-0.2584,-0.6181,0.6541,0.0155,9.3369,-0.7233,0.6444,-0.4053,1.0512,-8.2782,3.4821,0.0661,-0.2309,0.75,1.0658,-7.4273,-1.2467,4.9453,-0.871326,0,1698647673,4
-0.3112,0.1378,-0.0018,0.5535,-0.8515,-0.6264,0.4507,-0.0294,9.634,-1.0135,0.6749,-0.5341,1.1927,-8.4877,3.5346,0.165,-0.1273,0.3207,1.0958,-7.5122,-1.24,5.2243,-0.866513,0,1698647673,5
-0.3039,0.2858,0.005,0.5889,-1.0216,-0.7522,0.1827,0.1025,9.9031,-1.2146,0.7046,-0.6478,1.3077,-8.6672,3.5955,0.296,-0.0801,-0.0825,1.0961,-7.5933,-1.2597,5.4574,-0.763537,0,1698647673,6
-0.2951,0.4255,0.0114,0.5993,-0.6995,-0.9155,-0.0663,0.2897,10.0305,-1.1356,0.7301,-0.6901,1.3842,-8.8192,3.6793,0.4365,-0.0741,-0.4137,1.0529,-7.6347,-1.2886,5.6015,-0.672416,0,1698647673,6
-0.2862,0.5335,0.018,0.6051,-0.3701,-1.0475,-0.2385,0.2892,9.9267,-0.911,0.7619,-0.6412,1.4113,-8.9306,3.7605,0.5662,-0.0916,-0.6223,0.9656,-7.623,-1.3343,5.6439,-0.676508,0,1698647673,7
-0.2775,0.5998,0.0249,0.6128,-0.1014,-1.1509,-0.3645,0.3444,9.8676,-0.7269,0.7951,-0.5444,1.3829,-8.9939,3.8244,0.6491,-0.1572,-0.7008,0.8578,-7.5808,-1.4075,5.6202,-0.706228,0,1698647673,8
-0.2694,0.6313,0.0314,0.6257,-0.0231,-1.1127,-0.4564,0.4802,9.7881,-0.5959,0.7945,-0.4359,1.3037,-9.0179,3.8726,0.6512,-0.2933,-0.6655,0.7561,-7.5221,-1.4894,5.5625,-0.737578,0,1698647673,9
-0.2625,0.636,0.0369,0.6394,-0.0577,-1.0149,-0.5091,0.5839,9.7509,-0.4594,0.7242,-0.327,1.1885,-9.0045,3.8927,0.6057,-0.4647,-0.5648,0.6874,-7.477,-1.5199,5.4891,-0.752957,0,1698647673,10
-0.2568,0.6105,0.0418,0.6224,-0.0454,-0.9508,-0.5142,0.592,9.8971,-0.3012,0.6082,-0.2126,1.0616,-8.9641,3.9038,0.5143,-0.6242,-0.4414,0.6604,-7.457,-1.4921,5.4467,-0.752887,0,1698647673,10
-0.2524,0.5514,0.0459,0.5781,-0.0367,-0.8141,-0.4696,0.6795,9.939,-0.1757,0.4985,-0.0853,0.9383,-8.9087,3.9263,0.4078,-0.7413,-0.3226,0.6625,-7.4443,-1.425,5.4459,-0.758376,0,1698647673,11
-0.2492,0.4688,0.049,0.5334,-0.1433,-0.6466,-0.3932,0.8381,9.9793,-0.0839,0.4056,0.0459,0.8212,-8.8454,3.9601,0.3125,-0.7828,-0.2643,0.6871,-7.4385,-1.3349,5.4811,-0.768639,0,1698647673,12
-0.2474,0.379,0.052,0.4909,-0.3232,-0.4952,-0.3048,0.9356,10.001,-0.0363,0.2942,0.1512,0.7089,-8.8015,4.0123,0.2138,-0.7537,-0.2762,0.7182,-7.4458,-1.2626,5.5192,-0.764272,0,1698647673,13
-0.2469,0.3054,0.0555,0.4632,-0.4255,-0.3495,-0.2115,0.9793,9.9072,-0.0472,0.1379,0.2057,0.6038,-8.7921,4.0654,0.1329,-0.7149,-0.3016,0.744,-7.4776,-1.2232,5.5228,-0.746529,0,1698647673,14
-0.247,0.2451,0.0593,0.4318,-0.4316,-0.1528,-0.1109,0.9723,9.8528,-0.1623,-0.033,0.2157,0.5128,-8.8165,4.0983,0.1006,-0.6907,-0.2881,0.7555,-7.5272,-1.2316,5.4826,-0.738446,0,1698647673,14
-0.247,0.197,0.0632,0.4118,-0.4245,0.11,-0.0123,1.0786,9.9426,-0.3653,-0.1742,0.2013,0.4422,-8.8844,4.1287,0.0589,-0.6813,-0.2274,0.7534,-7.6087,-1.2689,5.4337,-0.754626,0,1698647673,15
-0.247,0.1608,0.0673,0.4103,-0.3584,0.3234,0.0787,1.2572,10.0965,-0.4644,-0.2857,0.1586,0.3924,-9.0088,4.1822,-0.024,-0.6851,-0.1572,0.7475,-7.7597,-1.3134,5.4235,-0.789266,0,1698647673,16
-0.247,0.1252,0.072,0.4093,-0.2526,0.5224,0.1819,1.2507,10.223,-0.4113,-0.3884,0.0896,0.3716,-9.216,4.2845,-0.128,-0.6718,-0.1231,0.7318,-8.0091,-1.3635,5.4509,-0.829217,0,1698647673,17
-0.2468,0.1154,0.0775,0.4099,-0.1959,0.7886,0.2943,1.2157,10.4851,-0.3435,-0.4605,0.0224,0.3955,-9.5165,4.4639,-0.2488,-0.6522,-0.1341,0.7026,-8.3858,-1.37,5.5464,-0.865384,0,1698647673,18
-0.246,0.1408,0.082,0.3875,-0.2473,1.015,0.4039,1.0988,11.2357,-0.3257,-0.4313,-0.0025,0.4669,-9.8697,4.6789,-0.3325,-0.6659,-0.1733,0.6808,-8.8206,-1.3221,5.7482,-0.894979,0,1698647673,18
-0.2439,0.1914,0.0839,0.3274,-0.5029,1.2096,0.4991,0.8519,12.2395,-0.343,-0.3175,0.0258,0.5642,-10.2132,4.8731,-0.3724,-0.7438,-0.2345,0.6877,-9.1936,-1.2459,6.0607,-0.91808,0,1698647673,19
-0.2398,0.2592,0.084,0.2629,-0.8198,1.4102,0.5732,0.6269,12.8839,-0.4089,-0.2435,0.0521,0.6167,-10.5407,5.0496,-0.3863,-0.8794,-0.3093,0.7254,-9.4638,-1.1841,6.3804,-0.934979,0,1698647673,20
-0.2337,0.3415,0.0835,0.2188,-1.0253,1.7468,0.6823,0.2295,12.6826,-0.1535,-0.6084,-0.0198,0.3718,-11.0546,5.2415,-0.5046,-1.3878,-0.2842,0.6713,-9.7742,-1.2682,6.5495,-0.92946,0,1698647673,21
-0.227,0.4002,0.083,0.167,-0.9819,1.8172,0.7657,-0.035,12.294,0.0842,-0.8785,0.0176,0.1587,-11.1667,5.2372,-0.582,-1.1572,-0.1783,0.5005,-9.8849,-1.3051,6.4129,-0.851058,0,1698647673,22
-0.2224,0.4035,0.0812,0.0939,-0.926,1.8812,0.8288,-0.2073,12.0127,0.234,-1.0739,0.1292,-0.0562,-11.1493,5.1884,-0.6733,-0.8519,-0.0526,0.2775,-9.978,-1.2736,6.1883,-0.804632,0,1698647673,22
-0.2196,0.3812,0.0778,0.0116,-0.7804,1.8781,0.8088,-0.3356,11.9773,0.2101,-1.2273,0.2756,-0.2708,-11.0139,5.1382,-0.7459,-0.6292,0.0698,0.0915,-10.0004,-1.1764,5.9423,-0.843372,0,1698647673,23
-0.2173,0.3634,0.073,-0.0852,-0.5351,1.8144,0.7216,-0.4232,11.7456,0.234,-1.3678,0.4259,-0.4758,-10.767,5.0962,-0.8007,-0.5552,0.2219,-0.0368,-9.9422,-1.0374,5.6809,-0.877738,0,1698647673,24
-0.2141,0.3606,0.0666,-0.2007,-0.3268,1.7802,0.5823,-0.3963,11.4459,0.2151,-1.5161,0.5691,-0.6624,-10.4411,5.0532,-0.8608,-0.5837,0.4091,-0.1645,-9.8149,-0.8943,5.4033,-0.904878,0,1698647673,25
-0.2089,0.3956,0.0584,-0.3023,-0.1726,1.7929,0.4077,-0.2985,11.1428,0.1353,-1.7105,0.6897,-0.832,-10.0602,4.9982,-0.9274,-0.686,0.5537,-0.2288,-9.6398,-0.761,5.1134,-0.926079,0,1698647673,26
-0.2013,0.4852,0.0485,-0.4585,0.0367,1.824,0.1936,-0.1824,10.5792,0.22,-1.98,0.7552,-0.9876,-9.6404,4.9164,-0.9825,-0.8336,0.6523,-0.2037,-9.4296,-0.6564,4.7875,-0.942583,0,1698647673,26
-0.1908,0.606,0.0375,-0.6657,0.2818,1.8508,-0.0783,-0.0906,9.9249,0.4365,-2.2865,0.7985,-1.1178,-9.1892,4.8016,-1.0195,-1.0505,0.7426,-0.1442,-9.1724,-0.5632,4.4538,-0.955403,0,1698647673,27
-0.1781,0.7287,0.0254,-0.8378,0.5328,1.8809,-0.3773,-0.0501,9.4686,0.7554,-2.597,0.8849,-1.2258,-8.7288,4.6634,-1.0311,-1.3621,0.7684,-0.0307,-8.8783,-0.4776,4.1463,-0.96536,0,1698647673,28
-0.1649,0.8462,0.012,-1.0088,0.6893,1.9682,-0.653,-0.0894,9.1868,1.0291,-2.9046,0.9767,-1.3046,-8.2745,4.4845,-1.0438,-1.7951,0.7296,0.1265,-8.5457,-0.4077,3.8548,-0.973094,0,1698647673,29
-0.1525,0.915,-0.0025,-1.1614,0.5689,2.1835,-0.8876,-0.151,9.1358,1.0599,-3.1486,1.083,-1.3291,-7.8156,4.2523,-1.077,-2.3308,0.6611,0.3126,-8.1716,-0.3491,3.5592,-0.975188,0,1698647673,30
-0.1418,0.9261,-0.0183,-1.3049,0.4354,2.3328,-1.0579,-0.2755,9.3092,1.0737,-3.3399,1.221,-1.3337,-7.3262,4.0267,-1.1714,-2.8176,0.596,0.4809,-7.8214,-0.3117,3.2611,-0.936622,0,1698647673,30
-0.1328,0.9238,-0.0363,-1.4309,0.3614,2.4138,-1.1305,-0.3912,9.1935,1.307,-3.4944,1.4832,-1.3304,-6.8577,3.8676,-1.3076,-3.1565,0.4594,0.6364,-7.5462,-0.2892,3.0098,-0.765755,0,1698647673,31
-0.1251,0.912,-0.0565,-1.5049,-0.0241,2.5705,-1.0914,-0.4947,9.0247,1.5387,-3.6119,1.7994,-1.3185,-6.4743,3.7824,-1.455,-3.361,0.245,0.8219,-7.3209,-0.2603,2.8221,-0.458273,0,1698647673,32
-0.1188,0.8598,-0.0772,-1.652,-0.6431,2.7365,-1.0049,-0.6748,9.1876,1.5504,-3.6861,1.9393,-1.2913,-6.2138,3.723,-1.661,-3.3996,-0.0152,1.0138,-7.1791,-0.2239,2.6632,-0.147667,0,1698647673,33
-0.1134,0.7918,-0.0981,-1.8667,-1.233,2.8816,-0.8924,-0.8593,9.4655,1.4848,-3.6602,1.9039,-1.1918,-6.1596,3.6905,-1.876,-3.2729,-0.3818,1.2173,-7.1753,-0.1906,2.577,0.08753,0,1698647673,34
-0.1082,0.7144,-0.1195,-2.0049,-1.9244,2.922,-0.5218,-1.5094,9.7482,1.3405,-3.2715,1.3767,-0.8096,-6.474,3.7857,-2.1338,-2.6448,-1.194,1.5873,-7.5124,-0.0597,2.7261,0.256019,0,1698647673,34
-0.1026,0.6652,-0.1445,-2.04,-1.9998,2.851,-0.3494,-1.8545,9.6748,1.4322,-2.8788,1.0997,-0.5714,-6.8011,3.9078,-2.12,-2.1233,-1.6034,1.7096,-7.7531,0.0019,2.9398,0.382193,0,1698647673,35
-0.0964,0.6531,-0.1703,-2.022,-1.9664,2.7737,-0.2436,-2.0843,9.5183,1.5438,-2.435,1.0055,-0.3505,-7.188,4.1117,-2.0022,-1.5128,-1.9367,1.7646,-8.0135,0.043,3.3052,0.492951,0,1698647673,36
-0.0906,0.6285,-0.1918,-2.0045,-1.9157,2.7,-0.2048,-2.1414,9.3537,1.5225,-2.1149,1.1207,-0.2353,-7.5522,4.393,-1.8401,-1.0847,-1.8163,1.6488,-8.3067,0.1464,3.7136,0.594241,0,1698647673,37
-0.0857,0.5998,-0.2114,-1.9566,-1.8047,2.5687,-0.2412,-2.0958,9.2863,1.457,-2.0334,1.4249,-0.2531,-7.8746,4.6933,-1.6879,-1.0708,-1.4732,1.4907,-8.5614,0.2801,4.0346,0.660464,0,1698647673,38
-0.0811,0.5623,-0.23,-1.8768,-1.6265,2.4343,-0.3521,-1.9178,9.2163,1.4113,-2.1558,1.8112,-0.3394,-8.153,4.9172,-1.5564,-1.314,-1.2535,1.4864,-8.7258,0.2904,4.2582,0.688942,0,1698647673,38
-0.0763,0.5496,-0.2469,-1.8212,-1.4113,2.2915,-0.5201,-1.7224,9.1512,1.334,-2.3429,2.1624,-0.4226,-8.3504,5.0638,-1.4567,-1.5822,-0.9542,1.5452,-8.8359,0.2696,4.3862,0.717391,0,1698647673,39
-0.0712,0.5567,-0.2625,-1.7141,-1.1087,2.1423,-0.7264,-1.537,9.0892,1.219,-2.5573,2.4794,-0.4949,-8.3922,5.1449,-1.4332,-1.8731,-0.5189,1.6343,-8.8861,0.2833,4.4051,0.761547,0,1698647673,40
-0.0662,0.5602,-0.277,-1.6098,-0.803,2.0094,-0.9344,-1.3601,9.0651,1.1494,-2.7715,2.8305,-0.5596,-8.3129,5.149,-1.4684,-2.2269,0.0025,1.7777,-8.9122,0.2814,4.3287,0.808352,0,1698647673,41
-0.0611,0.5496,-0.2899,-1.5577,-0.5561,1.872,-1.1454,-1.2537,9.2171,1.0774,-2.8774,3.2277,-0.5945,-8.2169,5.0945,-1.4928,-2.5887,0.5531,1.9266,-8.8866,0.2415,4.2301,0.847764,0,1698647673,42
-0.0553,0.5519,-0.3016,-1.4825,-0.2612,1.7568,-1.3484,-1.2095,9.2799,1.0413,-2.9017,3.606,-0.6216,-8.1265,5.0201,-1.4952,-2.879,0.9817,2.0772,-8.7758,0.1412,4.1505,0.877616,0,1698647673,42
-0.0491,0.5511,-0.313,-1.4212,0.0095,1.6835,-1.5147,-1.199,9.1859,1.0346,-2.9691,3.8999,-0.6964,-8.0155,4.9187,-1.5046,-3.0807,1.2021,2.2427,-8.5874,0.0369,4.1361,0.815263,0,1698647673,43
-0.0429,0.5343,-0.3246,-1.3883,0.0972,1.6717,-1.6591,-1.1782,9.3409,0.8597,-3.1136,4.0855,-0.8277,-7.9049,4.7649,-1.5025,-3.1453,1.2505,2.3968,-8.3066,-0.0554,4.1633,0.576627,0,1698647673,44
-0.0364,0.5738,-0.3367,-1.3976,-0.0691,1.7035,-1.7713,-1.1263,9.5153,0.706,-3.2786,4.153,-0.9561,-7.8123,4.5932,-1.4244,-3.0855,1.2251,2.4739,-7.969,-0.1255,4.2197,0.296443,0,1698647673,45
-0.0303,0.5983,-0.349,-1.4204,-0.3347,1.677,-1.8261,-1.1346,9.6828,0.5662,-3.3948,4.0827,-1.0193,-7.7201,4.4145,-1.3079,-2.9897,1.1875,2.4691,-7.6205,-0.1801,4.3045,0.11865,0,1698647673,46
-0.0251,0.5688,-0.3622,-1.3985,-0.4591,1.6471,-1.8346,-1.2459,9.8643,0.4024,-3.3854,3.85,-0.9814,-7.642,4.2602,-1.1864,-2.8956,1.1037,2.4355,-7.3033,-0.2429,4.4168,0.042814,0,1698647673,46
-0.0204,0.5437,-0.3763,-1.3723,-0.8618,1.6644,-1.6563,-1.3247,9.5743,0.4213,-3.1683,3.4573,-0.7688,-7.4533,3.9767,-1.1436,-2.7944,1.0249,2.2226,-6.7855,-0.3163,4.5586,0.060821,0,1698647673,47
-0.016,0.4874,-0.3902,-1.3496,-1.1753,1.4856,-1.5152,-1.6135,9.681,0.3937,-2.9776,3.4094,-0.7016,-7.3731,3.8693,-1.1801,-2.7227,1.049,2.0446,-6.6534,-0.3519,4.4888,0.15373,0,1698647673,48
-0.0128,0.4021,-0.4032,-1.2876,-1.4972,1.3007,-1.3536,-1.8212,9.8166,0.2491,-2.706,3.3629,-0.7014,-7.3466,3.7758,-1.2178,-2.5579,1.1027,1.8203,-6.574,-0.4375,4.4245,0.232556,0,1698647673,49
-0.0108,0.3441,-0.4147,-1.1905,-1.8206,1.1699,-1.1701,-1.8676,9.9177,0.0409,-2.3416,3.3284,-0.7183,-7.3752,3.7007,-1.2493,-2.2901,1.1444,1.5429,-6.5303,-0.5369,4.4418,0.234013,0,1698647673,50
-0.0091,0.3155,-0.4241,-1.0773,-2.0146,1.0597,-0.9816,-1.8644,9.6137,0.0242,-1.8728,3.2564,-0.7382,-7.4661,3.6705,-1.2595,-2.0003,1.1946,1.2704,-6.5519,-0.5016,4.4983,0.144628,1,1698647673,50
-0.0062,0.3166,-0.4313,-0.9494,-2.1807,0.9648,-0.8301,-1.7736,9.3284,0.007,-1.4039,3.106,-0.775,-7.5695,3.7176,-1.2846,-1.6908,1.2967,1.0289,-6.6408,-0.3748,4.4821,-0.010094,1,1698647673,51
-0.0013,0.3916,-0.4363,-0.8267,-2.279,0.915,-0.7175,-1.6569,9.2493,-0.091,-1.0882,2.8613,-0.8641,-7.6601,3.8247,-1.3429,-1.3567,1.3709,0.8158,-6.7896,-0.2471,4.4735,-0.157879,1,1698647673,52
0.0047,0.4962,-0.4392,-0.6766,-2.2556,0.9044,-0.6096,-1.5166,9.0809,-0.1317,-0.9368,2.6192,-0.9614,-7.7077,3.9696,-1.3916,-1.0001,1.3774,0.6383,-6.9837,-0.1501,4.5478,-0.267687,1,1698647673,53
0.0114,0.5667,-0.4398,-0.5051,-2.1514,0.8859,-0.484,-1.3677,9.0249,-0.1205,-0.8311,2.4406,-0.9995,-7.72,4.1413,-1.4027,-0.6745,1.3569,0.5072,-7.1951,-0.0568,4.6574,-0.344461,1,1698647673,54
0.0187,0.6044,-0.4393,-0.3822,-2.0142,0.8673,-0.366,-1.2473,8.9208,-0.0532,-0.737,2.2916,-0.9984,-7.7449,4.3232,-1.3792,-0.4446,1.3342,0.4208,-7.3938,0.0416,4.7112,-0.41105,1,1698647673,54
0.0269,0.6166,-0.4389,-0.2831,-1.8616,0.829,-0.2846,-1.188,8.8153,0.0014,-0.6913,2.175,-0.9822,-7.7597,4.4694,-1.3677,-0.3836,1.3225,0.3792,-7.5434,0.1188,4.7119,-0.480772,1,1698647673,55
0.0359,0.6586,-0.4375,-0.1575,-1.7695,0.7784,-0.1449,-1.4199,8.8678,-0.0141,-0.6802,2.038,-0.945,-7.8138,4.646,-1.2983,-0.5628,1.3658,0.3655,-7.6591,0.2181,4.8515,-0.554744,1,1698647673,56
0.0445,0.69,-0.4337,-0.0257,-1.646,0.644,-0.0072,-1.6705,8.7298,-0.2282,-0.682,1.944,-0.9399,-7.8511,4.6709,-1.3134,-0.6433,1.4211,0.3124,-7.6511,0.214,4.843,-0.626322,1,1698647673,57
0.0518,0.657,-0.4266,0.1169,-1.4112,0.4996,0.1458,-1.947,8.2632,-0.4141,-0.6647,1.8326,-0.9572,-7.902,4.6467,-1.3706,-0.6317,1.4275,0.2098,-7.628,0.1653,4.775,-0.690908,1,1698647673,58
0.0584,0.631,-0.417,0.27,-1.1666,0.3354,0.2322,-2.1666,7.9886,-0.5427,-0.6002,1.6924,-0.9962,-7.9964,4.5776,-1.4085,-0.4966,1.2714,0.0747,-7.6031,0.0639,4.7705,-0.749796,0,1698647673,58
0.0649,0.6349,-0.4063,0.4202,-0.9612,0.1023,0.2721,-2.4083,8.0955,-0.5782,-0.4443,1.4864,-1.0487,-8.1362,4.4938,-1.3998,-0.2587,1.018,-0.083,-7.6383,-0.0286,4.8234,-0.796637,0,1698647673,59
0.0713,0.6378,-0.3953,0.5802,-0.7395,-0.1828,0.2622,-2.6628,8.3721,-0.6033,-0.1733,1.2181,-1.0715,-8.2934,4.4121,-1.3971,0.0974,0.6994,-0.2686,-7.7469,-0.0966,4.8503,-0.836005,0,1698647673,60
0.078,0.6345,-0.384,0.6952,-0.5,-0.4494,0.2093,-2.7551,8.5514,-0.6285,0.1795,0.9194,-1.039,-8.4471,4.3698,-1.3981,0.5427,0.273,-0.4307,-7.8662,-0.1377,4.9773,-0.87183,0,1698647673,61
0.0843,0.6203,-0.3735,0.7625,-0.2645,-0.7528,0.1631,-2.7652,8.9093,-0.64,0.5447,0.5979,-0.9797,-8.6223,4.3968,-1.3607,1.0053,-0.1674,-0.5591,-8.0033,-0.1335,5.1869,-0.900155,0,1698647673,62
0.0895,0.5705,-0.3633,0.811,0.0164,-1.0753,0.1417,-2.7892,9.2503,-0.6719,0.8642,0.2681,-0.8969,-8.8199,4.4757,-1.3239,1.4874,-0.5631,-0.6938,-8.1501,-0.1185,5.3526,-0.922279,0,1698647673,62
0.0948,0.5549,-0.3539,0.8292,0.2303,-1.3267,0.1191,-2.6203,9.4385,-0.6786,1.1413,-0.0563,-0.7798,-9.0097,4.595,-1.2619,1.8942,-0.8687,-0.8086,-8.2767,-0.0951,5.4993,-0.937202,0,1698647673,63
0.1005,0.5692,-0.3461,0.7896,0.7216,-1.7533,0.0951,-2.2098,9.6643,-0.8124,1.5912,-0.6513,-0.5028,-9.2243,4.888,-1.1719,2.1862,-1.2184,-0.9448,-8.4903,0.0923,5.7713,-0.923267,0,1698647673,64
0.1058,0.5612,-0.34,0.7015,0.8377,-1.8781,0.071,-2.0518,10.0124,-0.9596,1.7648,-0.8709,-0.3595,-9.2597,5.0385,-1.1268,2.1575,-1.353,-0.9959,-8.607,0.1303,5.8411,-0.840639,0,1698647673,65
0.1112,0.5555,-0.3363,0.6,0.8325,-1.9161,0.0105,-1.9489,10.3522,-1.127,1.8818,-1.0756,-0.2312,-9.2733,5.1621,-1.1641,2.1854,-1.4712,-0.9649,-8.762,0.1284,5.9008,-0.710823,0,1698647673,66
0.1168,0.5305,-0.333,0.5281,0.9102,-1.9815,-0.0322,-1.942,10.5542,-1.0005,1.9138,-1.2849,-0.1144,-9.3391,5.2532,-1.3099,2.3009,-1.5315,-0.9366,-8.9757,0.078,5.9668,-0.573249,0,1698647673,66
0.1204,0.453,-0.3282,0.512,0.9902,-2.028,-0.056,-1.8866,10.9407,-0.6983,1.7375,-1.4969,0.0368,-9.5499,5.3219,-1.359,2.4792,-1.6005,-0.9717,-9.2045,-0.0355,6.0094,-0.443768,0,1698647673,67
0.1212,0.3404,-0.3223,0.5256,0.962,-2.0317,-0.1375,-1.7292,11.6145,-0.5087,1.72,-1.7425,0.2556,-9.8293,5.3568,-1.3068,2.7097,-1.6779,-1.062,-9.3552,-0.1381,6.0524,-0.339972,0,1698647673,68
0.1209,0.2369,-0.3157,0.5636,0.917,-1.9989,-0.3006,-1.5355,11.9657,-0.3749,1.9364,-1.9435,0.4614,-10.0674,5.3537,-1.231,3.0251,-1.7176,-1.1764,-9.4472,-0.1857,6.1513,-0.258926,0,1698647673,69
0.1207,0.1682,-0.3073,0.6225,0.9392,-1.8804,-0.4809,-1.3603,11.7727,-0.1781,1.9068,-2.091,0.5556,-10.2382,5.3361,-1.1569,3.2871,-1.7339,-1.2329,-9.5541,-0.178,6.28,-0.19558,0,1698647673,70
0.1205,0.1139,-0.2974,0.6805,1.0775,-1.7612,-0.6193,-1.3086,11.4581,0.1564,1.6196,-2.2287,0.541,-10.3461,5.3013,-1.2896,3.5307,-1.779,-1.241,-9.7618,-0.2506,6.3639,-0.150278,0,1698647673,70
0.1194,0.0374,-0.2869,0.7648,1.1542,-1.5152,-0.7285,-1.2033,11.1007,0.5531,1.2526,-2.2726,0.4862,-10.475,5.252,-1.6247,3.8196,-1.8728,-1.2158,-10.0385,-0.388,6.3502,-0.126183,0,1698647673,71
0.116,-0.0801,-0.2758,0.8112,1.3391,-1.1813,-0.9348,-1.1719,11.943,1.0326,1.0323,-1.9805,0.52,-10.7112,5.0529,-2.1995,3.9646,-1.8318,-1.2138,-10.4211,-0.5233,5.9913,-0.095933,0,1698647673,72
0.11,-0.2195,-0.266,0.777,1.7136,-1.219,-0.9957,-1.1337,12.3415,1.2628,1.1756,-1.7312,0.584,-10.7455,4.868,-2.3068,3.7663,-1.7528,-1.2109,-10.4143,-0.5255,5.8488,-0.05173,0,1698647673,73
0.1007,-0.4059,-0.2594,0.7075,1.8511,-1.273,-0.9799,-1.1719,12.6945,1.3657,1.3371,-1.5478,0.6048,-10.6853,4.6269,-2.3076,3.4036,-1.5303,-1.2009,-10.2572,-0.5072,5.7462,-0.030282,0,1698647673,74
0.088,-0.6716,-0.2554,0.6078,1.8505,-1.3712,-0.908,-1.3192,12.5419,1.5135,1.4609,-1.4156,0.5733,-10.4864,4.3583,-2.2935,2.9735,-1.1607,-1.2298,-9.9944,-0.5736,5.573,-0.023673,0,1698647673,74
0.073,-0.9256,-0.2527,0.5174,1.8211,-1.5625,-0.8027,-1.4015,11.7998,1.7927,1.5435,-1.2712,0.5138,-10.1673,4.0749,-2.2994,2.5636,-0.727,-1.3196,-9.6667,-0.7105,5.3088,-0.014093,0,1698647673,75
0.0553,-1.1439,-0.2497,0.4805,1.6023,-1.8227,-0.6784,-1.5269,11.1395,1.8938,1.6681,-1.0814,0.4497,-9.7511,3.7545,-2.3462,2.1779,-0.276,-1.4651,-9.2572,-0.8922,4.9673,-0.005786,0,1698647673,76
0.0366,-1.3367,-0.2455,0.5034,1.2499,-2.0853,-0.5869,-1.7475,10.8941,1.6418,1.9285,-0.8437,0.3974,-9.2628,3.4231,-2.4203,1.828,0.1698,-1.6583,-8.7598,-1.0978,4.5705,-0.013592,0,1698647674,77
0.0155,-1.4349,-0.239,0.5437,0.96,-2.3455,-0.4988,-1.9328,10.7733,1.1365,2.3335,-0.6139,0.361,-8.7476,3.0678,-2.5096,1.535,0.5834,-1.8893,-8.2644,-1.2919,4.1659,-0.100739,0,1698647674,78
-0.006,-1.4964,-0.2301,0.6189,0.8533,-2.6525,-0.3391,-1.9757,10.3921,0.7595,2.8757,-0.2462,0.3779,-8.2907,2.7114,-2.5782,1.3253,0.9234,-2.1079,-7.8646,-1.4435,3.7778,-0.266627,0,1698647674,78
-0.027,-1.6331,-0.2189,0.7718,0.7236,-3.1968,-0.1376,-1.9411,9.9509,0.6107,3.4843,-0.097,0.4584,-7.9436,2.4044,-2.6114,1.2859,1.1133,-2.276,-7.5672,-1.5525,3.4635,-0.429309,0,1698647674,79
-0.0491,-1.771,-0.2064,0.9115,0.4649,-4.0831,0.3255,-1.9124,9.4576,0.5565,4.5543,-0.7807,0.7967,-7.5946,1.9845,-2.6556,1.838,0.8626,-2.3579,-7.1772,-1.6953,3.2379,-0.556728,0,1698647674,80
-0.073,-1.8077,-0.1937,0.9679,0.3767,-4.3779,0.5354,-1.7666,9.6677,0.5696,4.9458,-1.2859,1.0188,-7.563,1.886,-2.6411,2.2935,0.5344,-2.327,-7.0218,-1.6919,3.2639,-0.655697,0,1698647674,81
-0.0964,-1.7869,-0.1821,0.9723,0.3287,-4.5643,0.7266,-1.4999,9.8627,0.6394,5.2515,-1.8334,1.2519,-7.5991,1.8916,-2.586,2.8152,0.1635,-2.3201,-6.9358,-1.6133,3.3589,-0.73257,0,1698647674,82
-0.1173,-1.7936,-0.1728,0.9284,0.3706,-4.6912,0.8947,-1.0945,9.9192,0.831,5.4626,-2.3447,1.4721,-7.6603,2.0351,-2.5399,3.3184,-0.2081,-2.3352,-6.9441,-1.4919,3.4896,-0.792279,0,1698647674,82
-0.1373,-1.771,-0.1649,0.8639,0.5472,-4.8204,1.0713,-0.7175,9.7079,1.2377,5.4902,-2.8194,1.6423,-7.7605,2.2675,-2.49,3.7203,-0.5444,-2.3511,-7.0703,-1.3701,3.647,-0.838655,0,1698647674,83
-0.1557,-1.7546,-0.1575,0.8172,0.7056,-4.8475,1.2204,-0.3122,9.466,1.5386,5.3361,-3.2384,1.7353,-7.9289,2.542,-2.3783,4.0538,-0.7971,-2.361,-7.2832,-1.3086,3.811,-0.839562,0,1698647674,84
-0.1728,-1.7456,-0.1505,0.7673,0.8534,-4.7356,1.2987,0.1004,9.296,1.6527,5.0852,-3.5315,1.7471,-8.1394,2.8164,-2.2177,4.3324,-0.9593,-2.3882,-7.5026,-1.3193,3.956,-0.721797,0,1698647674,85
-0.1888,-1.6648,-0.1436,0.7332,0.9563,-4.497,1.3433,0.4559,9.1345,1.6987,4.8281,-3.7063,1.7144,-8.3334,3.0331,-2.0417,4.4517,-0.9967,-2.4383,-7.7137,-1.3373,4.0592,-0.547153,0,1698647674,86
-0.2037,-1.6259,-0.1363,0.7213,1.0831,-4.2137,1.3788,0.6564,8.8777,1.762,4.6216,-3.768,1.6524,-8.4872,3.1845,-1.8871,4.2844,-0.8928,-2.4696,-7.9153,-1.3366,4.1223,-0.411225,0,1698647674,86
-0.2176,-1.5809,-0.1286,0.6994,1.1807,-3.8819,1.3971,0.767,8.7666,1.7369,4.4841,-3.6786,1.5582,-8.5968,3.2872,-1.7934,3.8767,-0.6936,-2.4573,-8.0759,-1.3504,4.1745,-0.304509,0,1698647674,87
-0.2314,-1.4748,-0.1202,0.683,1.1415,-3.482,1.3967,0.7649,8.9855,1.5314,4.3433,-3.5411,1.4331,-8.6552,3.3249,-1.7415,3.3632,-0.3855,-2.4349,-8.1763,-1.385,4.191,-0.219763,0,1698647674,88
-0.2446,-1.3926,-0.1119,0.6883,1.1374,-3.1117,1.3837,0.7465,9.2406,1.3431,4.1317,-3.3661,1.3087,-8.6549,3.3548,-1.6654,2.8594,0.0004,-2.4132,-8.2158,-1.4135,4.1616,-0.151248,0,1698647674,89
-0.2563,-1.3514,-0.104,0.7367,1.1598,-2.8053,1.3642,0.8209,9.3954,1.261,3.9605,-3.2037,1.2111,-8.5886,3.3802,-1.5587,2.4648,0.3606,-2.3819,-8.1824,-1.4139,4.1083,-0.103859,0,1698647674,90
-0.2672,-1.3014,-0.0959,0.7684,1.1091,-2.5324,1.378,0.7835,9.4855,1.2085,3.8744,-3.1134,1.0894,-8.4832,3.4105,-1.4392,2.2205,0.6489,-2.327,-8.0845,-1.356,4.045,-0.138598,0,1698647674,90
-0.2779,-1.2423,-0.088,0.7609,1.0143,-2.2505,1.3981,0.7099,9.5907,1.1065,3.7862,-2.9401,0.9598,-8.304,3.4429,-1.3587,2.1074,0.8592,-2.2493,-7.9558,-1.2573,3.9822,-0.240039,0,1698647674,91
-0.2884,-1.1934,-0.0807,0.7528,0.8077,-1.9455,1.4078,0.7275,9.8071,0.9891,3.6171,-2.6538,0.8345,-8.0648,3.458,-1.3245,2.0485,1.0277,-2.1711,-7.8163,-1.1531,3.9267,-0.320173,0,1698647674,92
-0.2979,-1.1457,-0.0739,0.7202,0.6038,-1.6865,1.4297,0.7386,9.8782,0.9769,3.4083,-2.3906,0.7201,-7.8748,3.5105,-1.2576,1.9892,1.1841,-2.089,-7.6716,-1.0524,3.8983,-0.37075,0,1698647674,93
-0.3064,-1.0904,-0.0681,0.6627,0.4411,-1.4801,1.4622,0.7519,9.8535,1.0044,3.1191,-2.1367,0.5827,-7.7095,3.5652,-1.1548,1.9132,1.3303,-2.0006,-7.5424,-0.9407,3.8608,-0.384315,0,1698647674,94
-0.3144,-0.995,-0.063,0.6321,0.227,-1.2858,1.4797,0.7468,9.8269,0.972,2.8169,-1.919,0.4999,-7.551,3.5856,-1.0597,1.781,1.4388,-1.862,-7.4406,-0.8473,3.8442,-0.358384,0,1698647674,94
-0.3215,-0.8858,-0.058,0.6151,0.0914,-1.1237,1.4848,0.6798,9.7188,0.9252,2.6129,-1.8599,0.548,-7.4492,3.596,-0.96,1.5947,1.4557,-1.67,-7.3745,-0.7922,3.8681,-0.355926,0,1698647674,95
-0.3274,-0.8074,-0.053,0.5784,0.0482,-0.9638,1.4648,0.6774,9.6038,0.8798,2.4254,-1.8165,0.6032,-7.4003,3.606,-0.8672,1.3853,1.3061,-1.4144,-7.315,-0.8057,3.82,-0.410096,0,1698647674,96
-0.3315,-0.7192,-0.0483,0.5753,-0.004,-0.8515,1.3991,0.6464,9.5016,0.7675,2.2372,-1.73,0.6394,-7.4228,3.6113,-0.7797,1.1545,1.1822,-1.1417,-7.2887,-0.8451,3.7523,-0.498475,0,1698647674,97
-0.334,-0.6063,-0.0431,0.5968,-0.1256,-0.7268,1.3293,0.5489,9.391,0.5323,2.0399,-1.6355,0.6742,-7.5049,3.6417,-0.6714,0.9019,1.1201,-0.8761,-7.3526,-0.8575,3.8035,-0.597073,0,1698647674,98
-0.3354,-0.4898,-0.0364,0.624,-0.2958,-0.5779,1.252,0.4784,9.2784,0.3845,1.8321,-1.5365,0.7064,-7.6206,3.6778,-0.5819,0.6537,0.9849,-0.5898,-7.4542,-0.9038,3.8641,-0.683865,0,1698647674,98
-0.3359,-0.3871,-0.029,0.6578,-0.3829,-0.5262,1.152,0.3788,9.3283,0.3321,1.6477,-1.4213,0.7306,-7.7382,3.6874,-0.5148,0.4004,0.9276,-0.3648,-7.5253,-0.945,3.874,-0.752979,0,1698647674,99
-0.336,-0.3136,-0.0216,0.6715,-0.2329,-0.4713,0.9324,0.4398,9.1194,0.3939,1.2932,-1.1059,0.7186,-7.8854,3.7069,-0.3949,-0.2422,1.0235,-0.1071,-7.5752,-0.9319,3.9772,-0.806795,0,1698647674,0
-0.3359,-0.248,-0.0141,0.6531,-0.2329,-0.4713,0.9324,0.4398,9.1194,0.3939,1.2932,-1.1059,0.7186,-7.8854,3.7069,-0.3949,-0.2422,1.0235,-0.1071,-7.5752,-0.9319,3.9772,-0.848545,0,1698647674,1
-0.3358,-0.1824,-0.0075,0.6236,-0.2694,-0.3842,0.6623,0.6007,9.0209,0.3223,0.8973,-0.7733,0.6095,-7.907,3.7726,-0.3543,-0.8375,0.9212,0.2249,-7.5674,-0.9461,4.1097,-0.870737,0,1698647674,2
-0.3356,-0.1305,-0.0014,0.6056,-0.3283,-0.3144,0.5397,0.6769,8.9778,0.2578,0.689,-0.5933,0.5445,-7.911,3.8051,-0.3516,-0.953,0.7878,0.412,-7.5696,-0.9801,4.1618,-0.864074,0,1698647674,3
-0.3353,-0.0981,0.0042,0.5863,-0.4567,-0.1997,0.4206,0.7225,9.0865,0.1435,0.5067,-0.4253,0.494,-7.9298,3.8168,-0.3605,-0.9617,0.6561,0.5573,-7.5484,-1.0121,4.2097,-0.816599,0,1698647674,3
-0.3348,-0.0393,0.0089,0.5357,-0.6067,-0.1012,0.3119,0.7018,9.3394,-0.0099,0.3216,-0.2872,0.4497,-7.9704,3.8149,-0.3784,-0.9208,0.5197,0.6514,-7.5261,-1.0481,4.2823,-0.708193,0,1698647674,4
-0.3332,0.0636,0.0134,0.4957,-0.8732,0.0964,0.1985,0.761,9.1701,-0.0173,0.1055,-0.18,0.4059,-8.0503,3.8014,-0.3901,-0.9026,0.585,0.7331,-7.533,-1.0815,4.3902,-0.550507,0,1698647674,5
-0.3292,0.1612,0.0185,0.4937,-1.1961,0.2029,0.0524,0.7122,8.859,0.0718,-0.1519,-0.1137,0.3625,-8.1484,3.7832,-0.3682,-0.9286,0.6187,0.7828,-7.5427,-1.1064,4.5264,-0.399532,0,1698647674,6
-0.3234,0.2442,0.0235,0.5041,-1.3106,0.1996,-0.1275,0.5409,9.0405,0.0349,-0.4166,-0.0852,0.322,-8.2484,3.7674,-0.2705,-0.9692,0.3526,0.8078,-7.5486,-1.1505,4.6704,-0.285237,0,1698647674,7
-0.3165,0.3522,0.0281,0.4973,-1.2938,0.3155,-0.3064,0.5118,9.2699,-0.0197,-0.6443,-0.064,0.2897,-8.3555,3.7527,-0.1518,-0.9948,0.0513,0.8494,-7.5535,-1.1952,4.8229,-0.197969,0,1698647674,8
-0.3085,0.4511,0.033,0.481,-1.2492,0.4055,-0.4488,0.4336,9.2565,0.0202,-0.8212,-0.0347,0.268,-8.4744,3.7427,-0.0674,-0.9754,-0.2083,0.8783,-7.5618,-1.2396,4.9606,-0.12931,0,1698647674,8
-0.3,0.5411,0.0388,0.4922,-1.2402,0.4498,-0.5551,0.2612,9.3121,-0.0151,-0.9569,-0.0051,0.2494,-8.5901,3.7365,-0.0061,-0.9169,-0.421,0.8786,-7.5822,-1.2797,5.0777,-0.071766,0,1698647674,9
-0.2916,0.5971,0.0446,0.5075,-1.228,0.5166,-0.6232,0.1168,9.4288,-0.1523,-1.0598,0.0247,0.2282,-8.6883,3.7389,0.0244,-0.8894,-0.5862,0.8669,-7.6049,-1.302,5.1761,-0.022029,0,1698647674,10
-0.284,0.5943,0.0495,0.5153,-1.101,0.5532,-0.6761,0.0939,9.5386,-0.2055,-1.1226,0.0589,0.21,-8.7712,3.7477,0.0157,-0.9379,-0.6924,0.857,-7.629,-1.3185,5.2448,0.020682,0,1698647674,11
-0.2776,0.5653,0.0544,0.5169,-0.7238,0.5991,-0.6495,0.2802,9.6289,-0.3013,-1.1264,0.1601,0.1707,-8.9018,3.7862,-0.0757,-0.8547,-0.738,0.8463,-7.7413,-1.3443,5.3184,0.058338,0,1698647674,12
-0.2728,0.5049,0.0593,0.4922,-0.5235,0.6113,-0.6147,0.3128,9.6451,-0.2899,-1.1019,0.2271,0.1441,-8.9525,3.8109,-0.1107,-0.7329,-0.6689,0.8452,-7.7999,-1.3511,5.3259,0.004663,0,1698647674,13
-0.2696,0.4326,0.0631,0.4498,-0.3246,0.6719,-0.5851,0.2737,9.6685,-0.2752,-1.0667,0.2945,0.1191,-8.9975,3.8418,-0.1541,-0.8265,-0.587,0.8614,-7.8837,-1.3662,5.3593,-0.166442,0,1698647674,13
-0.2683,0.3501,0.066,0.4022,-0.1649,0.7786,-0.5579,0.269,9.6377,-0.3044,-1.0445,0.3426,0.1031,-9.0579,3.8867,-0.1844,-0.8703,-0.5158,0.8927,-7.988,-1.3746,5.4245,-0.346559,0,1698647674,14
-0.2683,0.258,0.0687,0.3725,0.0366,0.9092,-0.5359,0.3602,9.5464,-0.4209,-1.0673,0.3442,0.1051,-9.1478,3.9513,-0.2039,-0.9103,-0.4766,0.9443,-8.1096,-1.357,5.4835,-0.490812,0,1698647674,15
-0.2684,0.1916,0.0725,0.3784,0.3236,1.1053,-0.4873,0.6021,9.3991,-0.5488,-1.1532,0.279,0.128,-9.2625,4.0511,-0.2538,-0.9669,-0.499,1.0356,-8.2576,-1.3302,5.4999,-0.604139,0,1698647674,16
-0.2683,0.1516,0.0773,0.387,0.5737,1.3513,-0.4027,0.8224,9.6241,-0.5556,-1.3366,0.1397,0.1893,-9.4008,4.2006,-0.389,-1.0569,-0.5863,1.1644,-8.4922,-1.2776,5.5196,-0.692431,0,1698647674,17
-0.2679,0.1274,0.0817,0.3816,0.6189,1.6625,-0.2679,0.9023,10.3142,-0.5147,-1.5652,-0.018,0.3187,-9.5935,4.4198,-0.5098,-1.3058,-0.7359,1.3351,-8.8247,-1.1729,5.6196,-0.761062,0,1698647674,18
-0.2656,0.1755,0.0843,0.3302,0.4077,2.0142,-0.1223,0.8764,11.2658,-0.5212,-1.7171,-0.1174,0.5308,-9.7945,4.7034,-0.558,-1.73,-0.9007,1.5274,-9.1738,-1.0135,5.7999,-0.814383,0,1698647674,18
-0.2602,0.311,0.0848,0.2341,0.017,2.3564,0.0436,0.6366,11.9926,-0.4711,-1.7695,-0.1316,0.7927,-9.9672,4.9946,-0.5537,-2.1507,-1.0304,1.7109,-9.4706,-0.8432,6.0549,-0.855418,0,1698647674,19
-0.2513,0.4638,0.0843,0.163,-0.2746,2.5975,0.1912,0.2836,12.3733,-0.4606,-1.8426,-0.1409,1.0064,-10.1764,5.2169,-0.4864,-2.4476,-1.1312,1.8661,-9.6852,-0.7531,6.3323,-0.880686,0,1698647674,20
-0.2409,0.576,0.0835,0.1091,-0.3408,2.7191,0.38,0.0132,12.2122,-0.3201,-2.0758,-0.2256,1.0812,-10.3894,5.3584,-0.5323,-2.5777,-1.2179,1.9654,-9.8331,-0.7954,6.4746,-0.87414,0,1698647674,21
-0.2309,0.6612,0.0807,0.0101,-0.2721,2.7403,0.6246,-0.318,12.5294,-0.0562,-2.4606,-0.3205,1.0131,-10.5565,5.4231,-0.7222,-2.51,-1.2939,1.9676,-9.9196,-0.9226,6.4124,-0.845726,0,1698647674,22
-0.2227,0.6746,0.0753,-0.1227,-0.0347,2.5983,0.8206,-0.5068,13.1818,0.1017,-2.8063,-0.3464,0.8776,-10.6636,5.4314,-0.9223,-2.2887,-1.3068,1.8661,-9.9473,-1.042,6.1797,-0.84369,0,1698647674,23
-0.217,0.6141,0.0682,-0.2695,0.3133,2.4785,0.9745,-0.4957,13.1062,0.3746,-2.9658,-0.2694,0.7204,-10.7013,5.3927,-1.0906,-2.0027,-1.1941,1.6953,-9.9359,-1.1067,5.8501,-0.871627,0,1698647674,23
-0.2133,0.5272,0.059,-0.4342,0.6101,2.4631,1.0541,-0.5385,12.8167,0.7341,-2.9636,-0.0928,0.5335,-10.6728,5.3019,-1.1926,-1.737,-0.9737,1.4927,-9.8846,-1.0893,5.5454,-0.899828,0,1698647674,24
-0.2116,0.4243,0.0475,-0.6275,0.7792,2.4537,1.0562,-0.5602,12.4094,1.0251,-2.8868,0.1381,0.298,-10.5609,5.1844,-1.2516,-1.5417,-0.6857,1.2911,-9.7544,-0.9911,5.3106,-0.922157,0,1698647674,25
-0.2109,0.3516,0.0334,-0.7923,0.8083,2.5222,1.0101,-0.4399,12.0238,1.1434,-2.863,0.3984,-0.0051,-10.3262,5.0736,-1.3285,-1.4224,-0.3572,1.1123,-9.5578,-0.8156,5.0983,-0.939524,0,1698647674,26
-0.2089,0.3602,0.0176,-0.9445,0.394,2.7691,0.8207,-0.0992,10.596,1.7491,-3.1726,0.9082,-0.7825,-9.548,4.9425,-1.4748,-1.5141,0.4709,0.8004,-9.1077,-0.4494,4.4097,-0.952989,0,1698647674,27
-0.2038,0.4628,0.0003,-1.1292,0.3362,2.884,0.6312,0.0986,10.0855,1.8998,-3.4037,1.127,-1.158,-9.0506,4.8339,-1.5141,-1.7879,0.9945,0.611,-8.8118,-0.3109,3.9428,-0.867165,0,1698647674,28
-0.1947,0.575,-0.0188,-1.3002,0.3722,3.0405,0.4098,0.4267,9.677,2.0198,-3.5465,1.3539,-1.4751,-8.4841,4.7059,-1.5729,-2.1965,1.4796,0.4264,-8.4929,-0.1852,3.4768,-0.649054,0,1698647674,28
-0.1831,0.6602,-0.0382,-1.4665,0.5203,3.1271,0.1621,0.6468,9.5232,2.1087,-3.626,1.6069,-1.7079,-7.8883,4.5846,-1.6678,-2.7142,1.801,0.3359,-8.2132,-0.0788,3.0164,-0.42434,0,1698647674,29
-0.1718,0.7222,-0.057,-1.5442,0.6685,3.289,-0.0355,0.7836,9.5692,1.9741,-3.6621,1.8401,-1.8307,-7.3603,4.4554,-1.8081,-3.2483,1.8538,0.4291,-8.052,-0.0244,2.6054,-0.280894,0,1698647674,30
-0.1616,0.7729,-0.0766,-1.6115,0.6176,3.6048,-0.137,0.8318,9.7945,1.6325,-3.6629,1.9828,-1.8417,-6.9889,4.3323,-1.963,-3.7016,1.6366,0.6763,-7.9934,0.0159,2.3244,-0.117044,0,1698647674,31
-0.1521,0.7957,-0.0972,-1.7322,0.4493,3.9089,-0.2124,0.7706,10.0726,1.3201,-3.678,1.9881,-1.7301,-6.7774,4.2222,-2.109,-4.0366,1.1816,0.9893,-7.9893,0.0446,2.1818,0.109578,0,1698647674,32
-0.1428,0.7923,-0.1187,-1.8369,0.287,4.2124,-0.288,0.6042,10.3506,1.1336,-3.7059,1.8617,-1.502,-6.7094,4.1108,-2.1991,-4.2533,0.5674,1.3014,-8.0059,0.0573,2.1787,0.30108,0,1698647674,33
-0.1337,0.8079,-0.1403,-1.9617,0.1209,4.5001,-0.3177,0.128,10.3525,1.137,-3.7344,1.6119,-1.2072,-6.7533,4.0166,-2.2293,-4.3177,-0.1356,1.6129,-8.0861,0.0954,2.3438,0.448705,0,1698647674,33
-0.1245,0.8452,-0.1617,-2.0515,-0.0234,4.6358,-0.3102,-0.5805,10.2633,1.2517,-3.7608,1.2747,-0.9006,-6.9242,3.9987,-2.1956,-4.2229,-0.9005,1.9102,-8.2268,0.1224,2.6445,0.566291,0,1698647674,34
-0.1153,0.8564,-0.1836,-2.0911,-0.1227,4.6117,-0.3213,-1.2348,10.151,1.3256,-3.7762,0.942,-0.6242,-7.1997,4.0433,-2.1092,-4.0367,-1.6566,2.1215,-8.3424,0.08,2.9901,0.662181,0,1698647674,35
-0.1062,0.8175,-0.2051,-2.0996,-0.1564,4.4489,-0.3309,-1.8361,9.819,1.3105,-3.8009,0.6768,-0.4163,-7.5078,4.1114,-2.0058,-3.7967,-2.3112,2.2013,-8.4215,-0.0056,3.3154,0.737498,0,1698647674,36
-0.0976,0.7777,-0.2242,-2.092,-0.1417,4.2015,-0.3613,-2.2846,9.5111,1.2531,-3.8611,0.5305,-0.3051,-7.8369,4.2043,-1.8568,-3.5395,-2.7575,2.1346,-8.4662,-0.1015,3.6055,0.79609,0,1698647674,37
-0.0891,0.7936,-0.2419,-2.0152,-0.1609,3.9514,-0.436,-2.4187,9.3332,1.1462,-3.9512,0.5413,-0.321,-8.1665,4.342,-1.6397,-3.384,-2.9268,1.9575,-8.4701,-0.1997,3.8464,0.8416,0,1698647674,38
-0.0803,0.8298,-0.2592,-1.9217,-0.0223,3.3669,-0.6877,-2.2801,9.2372,0.9213,-4.0293,0.9667,-0.5464,-8.5401,4.613,-1.3053,-3.512,-2.5383,1.573,-8.4095,-0.2907,4.148,0.876901,0,1698647674,38
-0.0711,0.8245,-0.2757,-1.8537,0.1602,3.0671,-0.8302,-2.0447,9.0929,0.8899,-4.0214,1.3053,-0.695,-8.5356,4.7006,-1.225,-3.7121,-2.0322,1.3952,-8.3569,-0.3422,4.226,0.901942,0,1698647674,39
-0.0618,0.8072,-0.2904,-1.7428,0.3062,2.8188,-0.9408,-1.7983,8.9202,0.952,-4.0272,1.6748,-0.8573,-8.4291,4.7166,-1.1803,-3.8334,-1.2633,1.171,-8.2385,-0.4482,4.177,0.907322,0,1698647674,40
-0.0524,0.7902,-0.3043,-1.6399,0.3949,2.6286,-1.0506,-1.5828,8.7961,1.0211,-4.0266,2.0539,-1.0115,-8.2585,4.672,-1.1776,-3.9702,-0.6201,1.0838,-8.1214,-0.4656,4.1291,0.871463,0,1698647674,41
-0.0433,0.7714,-0.3178,-1.5611,0.4962,2.4578,-1.1803,-1.3989,8.7674,1.0687,-4.0039,2.373,-1.1347,-8.0624,4.5679,-1.2015,-4.0817,-0.5466,1.2112,-8.0235,-0.4515,4.144,0.771534,0,1698647674,42
-0.0351,0.7642,-0.3301,-1.4825,0.4726,2.3575,-1.298,-1.2167,8.8413,1.0075,-3.9642,2.5732,-1.2253,-7.8753,4.4231,-1.2235,-3.8963,-0.8235,1.4141,-7.8782,-0.5163,4.1141,0.687801,0,1698647674,43
-0.0273,0.7815,-0.342,-1.421,0.4014,2.3239,-1.3937,-1.1471,8.9789,0.8999,-3.964,2.6179,-1.3118,-7.7171,4.28,-1.212,-3.4397,-1.1085,1.593,-7.7039,-0.5791,4.1163,0.703428,0,1698647674,43
-0.0192,0.7715,-0.3538,-1.3995,0.3197,2.2987,-1.4714,-1.1061,8.9374,0.8192,-4.0346,2.5265,-1.3859,-7.6178,4.1482,-1.1905,-2.9494,-1.2864,1.7005,-7.521,-0.6247,4.1603,0.763687,0,1698647674,44
-0.0114,0.7266,-0.3654,-1.3655,0.1941,2.2237,-1.4986,-1.2598,9.1199,0.5882,-4.0425,2.406,-1.3999,-7.5532,4.001,-1.1847,-2.5141,-1.4058,1.7925,-7.342,-0.6748,4.2238,0.815761,0,1698647674,45
-0.0044,0.7134,-0.3763,-1.3211,0.1595,2.1629,-1.4847,-1.6334,9.423,0.4571,-3.9439,2.2946,-1.3691,-7.4961,3.8737,-1.1418,-2.101,-1.4568,1.8077,-7.1759,-0.6951,4.3001,0.856237,0,1698647674,46
0.0025,0.7099,-0.3864,-1.2519,0.1293,2.0842,-1.4705,-1.784,9.4564,0.436,-3.8196,2.1842,-1.3383,-7.4716,3.7971,-1.0927,-1.7674,-1.4326,1.7359,-7.0205,-0.6811,4.3992,0.886924,0,1698647674,47
0.009,0.6915,-0.3954,-1.1511,0.053,1.9582,-1.422,-1.8582,9.3326,0.4327,-3.6778,2.078,-1.3195,-7.4947,3.7392,-1.0508,-1.4724,-1.3924,1.6121,-6.8784,-0.6973,4.4992,0.909497,0,1698647674,48
0.0147,0.6605,-0.4032,-1.0311,-0.3203,1.6741,-1.2783,-1.769,9.3245,0.3287,-3.1579,1.8399,-1.2373,-7.5765,3.6296,-0.9962,-1.0732,-1.2778,1.261,-6.607,-0.6823,4.7081,0.92579,0,1698647674,48
0.0203,0.6405,-0.4094,-0.8791,-0.4505,1.5102,-1.1816,-1.7605,9.2532,0.2483,-2.7301,1.7424,-1.161,-7.6425,3.6217,-0.9371,-0.9119,-1.2278,1.1145,-6.5449,-0.6715,4.83,0.93635,0,1698647674,49
0.026,0.6238,-0.4137,-0.7399,-0.5371,1.3053,-1.0851,-1.7641,9.2542,0.2059,-2.2666,1.6777,-1.0855,-7.6943,3.6607,-0.8872,-0.6537,-1.1609,0.9862,-6.5478,-0.6195,4.9747,0.860412,0,1698647674,50
0.0317,0.6049,-0.4168,-0.6236,-0.601,1.0823,-0.9982,-1.789,9.1831,0.265,-1.8197,1.6215,-1.0072,-7.7505,3.7294,-0.8569,-0.339,-1.0723,0.8405,-6.5871,-0.5649,5.0894,0.592063,0,1698647674,51
0.0379,0.6122,-0.418,-0.4998,-0.6949,0.8946,-0.9265,-1.76,9.1318,0.2627,-1.4274,1.5514,-0.9354,-7.8186,3.8208,-0.822,-0.0502,-0.9822,0.7325,-6.684,-0.5103,5.2181,0.251506,0,1698647674,52
0.0448,0.6405,-0.4179,-0.3741,-0.8386,0.7956,-0.841,-1.7033,9.1046,0.1746,-1.1073,1.4663,-0.8659,-7.8631,3.9329,-0.7817,0.1682,-0.8508,0.6367,-6.8001,-0.4128,5.3483,-0.020995,0,1698647674,53
0.0516,0.6446,-0.4176,-0.273,-0.9238,0.6446,-0.7464,-1.6857,8.9888,0.1974,-0.8349,1.327,-0.7745,-7.894,4.0556,-0.7397,0.2755,-0.7471,0.5614,-6.8783,-0.3367,5.4365,-0.235211,0,1698647674,53
0.0583,0.6389,-0.417,-0.1949,-0.8792,0.385,-0.6525,-1.6843,8.9874,0.2821,-0.6514,1.1803,-0.7052,-7.9006,4.1607,-0.7029,0.2652,-0.6427,0.5038,-6.9243,-0.252,5.5099,-0.399945,0,1698647675,54
0.065,0.6451,-0.4157,-0.1055,-0.738,0.0385,-0.6085,-1.7268,9.2292,0.1948,-0.5625,1.1005,-0.6837,-7.8795,4.2411,-0.6635,0.1132,-0.5402,0.4454,-6.9552,-0.1571,5.5581,-0.521565,0,1698647675,55
0.0705,0.6266,-0.4126,0.004,-0.8073,-0.1215,-0.5301,-1.7497,9.231,-0.0259,-0.5063,1.042,-0.6764,-7.8728,4.3032,-0.621,-0.1916,-0.4343,0.3966,-6.98,-0.0976,5.5244,-0.556965,0,1698647675,56
0.0751,0.5877,-0.4065,0.1441,-1.0486,-0.2194,-0.378,-1.8428,9.0207,-0.1455,-0.4779,0.9769,-0.6955,-7.8579,4.3418,-0.6133,-0.499,-0.2906,0.3374,-6.9983,-0.0649,5.4777,-0.514762,0,1698647675,57
0.0791,0.5472,-0.3972,0.3433,-1.1221,-0.5931,-0.1081,-2.1076,8.5566,-0.2912,-0.3736,0.9288,-0.7852,-7.8427,4.3248,-0.5868,-0.6546,0.0234,0.1008,-6.9405,-0.0442,5.4731,-0.524249,0,1698647675,58
0.0826,0.519,-0.3856,0.5463,-0.9676,-0.7996,-0.0135,-2.1943,8.4932,-0.3232,-0.2334,0.9043,-0.8396,-7.8779,4.317,-0.5728,-0.4598,0.1621,-0.0568,-6.9114,-0.0796,5.487,-0.596265,0,1698647675,58
0.086,0.4877,-0.3729,0.7349,-0.8314,-1.0572,0.0181,-2.2488,8.6553,-0.3534,-0.0427,0.858,-0.887,-7.938,4.3229,-0.5799,-0.0665,0.245,-0.2432,-6.9145,-0.125,5.5317,-0.595287,0,1698647675,59
0.0905,0.4976,-0.3598,0.8957,-0.654,-1.2359,-0.0382,-2.2524,8.8847,-0.4248,0.148,0.7863,-0.9502,-8.0497,4.3443,-0.5624,0.4401,0.2745,-0.4586,-6.9607,-0.1491,5.5903,-0.580338,0,1698647675,60
0.0967,0.5379,-0.3471,0.983,-0.3066,-1.3782,-0.1092,-2.2044,8.6659,-0.3866,0.3362,0.6828,-0.9916,-8.1809,4.3545,-0.5571,0.9163,0.2293,-0.6498,-7.0616,-0.1485,5.6625,-0.646254,0,1698647675,61
0.1036,0.5511,-0.3344,1.0487,-0.1288,-1.4921,-0.132,-2.0533,8.8039,-0.4246,0.5062,0.5318,-1.0008,-8.3073,4.3918,-0.5813,1.2554,0.1796,-0.7873,-7.1955,-0.1184,5.7137,-0.725205,0,1698647675,62
0.1103,0.5675,-0.3211,1.0743,-0.0001,-1.4953,-0.1497,-1.7982,9.3321,-0.4488,0.6715,0.3445,-0.9815,-8.4493,4.4607,-0.6114,1.4737,0.159,-0.9034,-7.3727,-0.0891,5.7426,-0.786525,0,1698647675,63
0.1167,0.5812,-0.3092,1.0182,0.1928,-1.4927,-0.149,-1.4732,9.5897,-0.3312,0.8323,0.1855,-0.9367,-8.5987,4.55,-0.6556,1.564,0.1165,-0.9996,-7.5823,-0.056,5.7971,-0.833831,0,1698647675,63
0.1213,0.5367,-0.3005,0.9208,0.2625,-1.5137,-0.1101,-1.3265,9.9785,-0.3479,0.9504,0.079,-0.89,-8.7342,4.6912,-0.7056,1.5583,0.0631,-1.0368,-7.7683,0.0115,5.8971,-0.865375,0,1698647675,64
0.1238,0.4458,-0.2952,0.8032,0.2544,-1.4823,-0.0756,-1.2573,10.4229,-0.4875,1.0531,0.0014,-0.84,-8.841,4.8701,-0.7365,1.6075,0.0531,-1.0589,-7.9265,0.1216,6.0013,-0.882903,0,1698647675,65
0.1256,0.3678,-0.2925,0.6537,0.1502,-1.4605,-0.0454,-1.238,10.6556,-0.5698,1.1517,-0.0504,-0.7799,-8.9422,5.0316,-0.7666,1.7319,0.0291,-1.0879,-8.0926,0.1673,6.0779,-0.898328,0,1698647675,66
0.1275,0.3327,-0.2918,0.4964,0.0719,-1.5772,-0.0677,-1.5567,10.841,-0.6842,1.3194,-0.2915,-0.6802,-9.27,5.2444,-0.9991,2.0385,-0.1637,-1.0791,-8.53,-0.0061,6.1415,-0.915407,0,1698647675,67
0.1296,0.3189,-0.2918,0.3794,0.3595,-1.656,-0.1321,-1.591,11.0303,-0.6387,1.4437,-0.4619,-0.6166,-9.5691,5.3089,-1.1238,2.1672,-0.2441,-1.1854,-8.741,-0.1193,6.1465,-0.928967,0,1698647675,68
0.1314,0.2785,-0.2917,0.3041,0.6221,-1.7462,-0.2385,-1.622,11.5507,-0.6581,1.6136,-0.6267,-0.5237,-9.8827,5.3312,-1.1538,2.2279,-0.4053,-1.2723,-8.9423,-0.1914,6.2821,-0.925406,0,1698647675,68
0.132,0.22,-0.2909,0.2867,0.803,-1.8223,-0.4344,-1.6028,11.925,-0.544,1.7294,-0.7496,-0.4414,-10.1365,5.3301,-1.2009,2.2026,-0.4991,-1.3441,-9.1839,-0.1645,6.4971,-0.902815,0,1698647675,69
0.1318,0.1708,-0.2876,0.3389,1.2214,-1.9699,-0.6104,-1.3999,10.9796,0.0141,1.6761,-0.8953,-0.4089,-10.3969,5.3247,-1.2342,2.1532,-0.5011,-1.4211,-9.4758,-0.2565,6.6496,-0.844592,0,1698647675,70
0.1314,0.1217,-0.281,0.4391,1.3784,-2.2534,-0.6968,-1.5233,9.7516,0.8882,1.5206,-1.0366,-0.4033,-10.6796,5.2887,-1.3085,2.2068,-0.5317,-1.492,-9.7929,-0.4489,6.748,-0.758307,0,1698647675,71
0.1293,0.0409,-0.2725,0.5332,0.9593,-2.2017,-0.7887,-1.7477,10.3964,0.8358,1.3836,-1.0918,-0.4015,-10.9201,5.2318,-1.4558,2.4411,-0.5751,-1.68,-10.0407,-0.6043,6.7261,-0.670829,0,1698647675,72
0.1238,-0.1386,-0.2633,0.6045,0.736,-1.9315,-0.8447,-1.6413,11.5165,0.4401,1.2967,-1.0793,-0.4061,-11.1023,5.1284,-1.5931,2.7593,-0.694,-1.8576,-10.1964,-0.7288,6.6722,-0.582308,0,1698647675,73
0.1143,-0.3824,-0.255,0.6385,0.9009,-1.8732,-0.8737,-1.4734,12.1553,0.5257,1.2659,-0.9759,-0.3977,-11.1688,4.9539,-1.7097,2.9128,-0.7309,-1.9453,-10.2259,-0.7287,6.6576,-0.498258,0,1698647675,73
0.1019,-0.6237,-0.2483,0.6202,1.0409,-1.8783,-0.8792,-1.3032,12.4572,0.7045,1.271,-0.8768,-0.4006,-11.095,4.6976,-1.7861,2.888,-0.5645,-2.0236,-10.12,-0.7842,6.457,-0.402897,0,1698647675,74
0.0879,-0.881,-0.2439,0.5519,1.0815,-1.9069,-0.875,-1.2814,12.2693,0.9363,1.3022,-0.7683,-0.431,-10.8862,4.3384,-1.8582,2.787,-0.2954,-2.046,-9.9094,-0.9307,6.1531,-0.307286,0,1698647675,75
0.0728,-1.0988,-0.2419,0.4495,1.015,-2.1746,-0.893,-1.4283,12.0946,0.8312,1.4287,-0.5604,-0.4494,-10.5585,3.9303,-1.9474,2.6318,0.02,-1.9953,-9.5978,-1.0766,5.8631,-0.23375,0,1698647675,76
0.0566,-1.2529,-0.2412,0.3545,0.9693,-2.3817,-0.8703,-1.6439,11.8265,0.6496,1.7067,-0.2916,-0.4254,-10.1653,3.5259,-2.0263,2.4925,0.335,-1.9747,-9.2168,-1.2378,5.5007,-0.176784,0,1698647675,77
0.0396,-1.38,-0.2404,0.3072,0.9031,-2.3874,-0.7709,-1.8077,11.2968,0.6788,2.1562,-0.0078,-0.3522,-9.7118,3.1365,-2.0962,2.3008,0.5992,-1.9194,-8.7783,-1.3641,5.1121,-0.172383,0,1698647675,78
0.0222,-1.5152,-0.2381,0.3249,0.8637,-2.4992,-0.6315,-1.9378,10.4347,0.9776,2.7286,0.2331,-0.257,-9.2094,2.7626,-2.167,2.03,0.8291,-1.7802,-8.3213,-1.5052,4.6977,-0.243456,0,1698647675,78
0.0038,-1.6806,-0.233,0.4154,0.7538,-2.6287,-0.4482,-1.9748,9.4786,1.3999,3.3419,0.4116,-0.1601,-8.6759,2.4158,-2.2369,1.8683,1.0401,-1.6627,-7.9016,-1.6516,4.286,-0.338728,0,1698647675,79
-0.0159,-1.8001,-0.2254,0.5111,0.538,-2.7949,-0.2274,-2.0027,9.0142,1.5476,3.941,0.512,-0.0388,-8.1808,2.1278,-2.2892,1.8253,1.198,-1.672,-7.5662,-1.7446,3.9532,-0.451909,0,1698647675,80
-0.037,-1.9273,-0.2162,0.6126,0.3508,-3.0407,0.0156,-2.0136,8.8713,1.511,4.4413,0.4579,0.1185,-7.8069,1.9206,-2.3401,1.8763,1.2653,-1.7747,-7.3563,-1.813,3.731,-0.573826,0,1698647675,81
-0.0592,-2.0545,-0.2067,0.7182,0.2438,-3.3331,0.2871,-1.9102,8.7598,1.5278,4.7745,0.2045,0.3046,-7.5755,1.7888,-2.3966,2.0386,1.2323,-1.8331,-7.2445,-1.8563,3.5731,-0.668978,0,1698647675,82
-0.0814,-2.115,-0.1968,0.7548,0.1394,-3.6547,0.5422,-1.7552,8.7071,1.5924,4.908,-0.2182,0.5105,-7.4739,1.7188,-2.4393,2.2746,1.1019,-1.8555,-7.1965,-1.8501,3.4759,-0.742885,0,1698647675,83
-0.1042,-2.1388,-0.1871,0.7843,-0.1965,-4.3475,0.9495,-1.4935,8.5947,1.9326,4.8024,-1.3074,0.9553,-7.5994,1.8514,-2.3137,2.8319,0.8152,-1.996,-7.273,-1.6893,3.5118,-0.800291,0,1698647675,83
-0.1263,-2.0991,-0.1783,0.8221,-0.0833,-4.5629,1.0909,-1.1889,8.7152,1.8975,4.6468,-1.8518,1.1761,-7.7685,2.0609,-2.2044,3.0007,0.7642,-2.0971,-7.3918,-1.5693,3.6301,-0.84488,0,1698647675,84
-0.1474,-2.0569,-0.1701,0.8165,0.0157,-4.6236,1.2143,-0.7893,8.8823,1.7603,4.4066,-2.3215,1.3553,-7.9913,2.3198,-2.0926,3.1446,0.7323,-2.2199,-7.5819,-1.4807,3.828,-0.879424,0,1698647675,85
-0.1665,-1.9613,-0.1626,0.7866,0.0576,-4.5583,1.2897,-0.3054,8.9827,1.6081,4.1425,-2.6676,1.4868,-8.2469,2.5794,-1.9656,3.2044,0.7391,-2.2667,-7.8252,-1.4263,4.0801,-0.905065,0,1698647675,86
-0.1836,-1.8173,-0.1554,0.756,0.1174,-4.459,1.3227,-0.0071,9.0556,1.4275,3.9433,-2.8334,1.5754,-8.493,2.8113,-1.8475,3.0975,0.8296,-2.2085,-8.0367,-1.3424,4.3294,-0.921273,0,1698647675,87
-0.199,-1.6882,-0.1486,0.7164,0.2287,-4.3136,1.3415,0.1925,9.0937,1.2587,3.8738,-2.7806,1.6262,-8.6863,3.0002,-1.7105,2.9658,0.9024,-2.1019,-8.1659,-1.3079,4.5425,-0.925165,0,1698647675,88
-0.2137,-1.5925,-0.1419,0.7099,0.3807,-4.1556,1.3561,0.2997,9.1076,1.1698,3.9195,-2.5521,1.6444,-8.8015,3.1162,-1.5769,2.9053,0.9871,-2.0055,-8.196,-1.3851,4.6549,-0.908995,0,1698647675,88
-0.2273,-1.5113,-0.135,0.7174,0.6045,-3.9971,1.3837,0.3892,9.0727,1.1673,4.0122,-2.2076,1.6262,-8.8329,3.1652,-1.4796,2.8635,1.185,-1.9868,-8.1405,-1.4654,4.6609,-0.895564,0,1698647675,89
-0.2393,-1.4184,-0.1285,0.689,0.8388,-3.8109,1.4008,0.5436,9.0162,1.1895,4.1455,-1.8488,1.5907,-8.8204,3.1733,-1.3999,2.8258,1.3949,-1.9928,-8.0362,-1.5355,4.615,-0.905464,0,1698647675,90
-0.2509,-1.3213,-0.1223,0.6639,0.9577,-3.5844,1.409,0.6379,9.1441,1.0896,4.324,-1.5795,1.5614,-8.7728,3.1571,-1.3124,2.852,1.5205,-1.9795,-7.8825,-1.6113,4.5214,-0.920201,0,1698647675,91
-0.2623,-1.2413,-0.1154,0.6723,0.9614,-3.331,1.4086,0.6631,9.2932,0.9593,4.4771,-1.4121,1.5361,-8.6775,3.1381,-1.2172,2.9311,1.8063,-1.9479,-7.7094,-1.6523,4.3899,-0.933966,0,1698647675,92
-0.2734,-1.2118,-0.1084,0.6678,0.9081,-3.0941,1.3784,0.6864,9.4935,0.8499,4.5739,-1.3281,1.5216,-8.5755,3.1263,-1.1496,2.9994,2.0122,-1.9191,-7.5353,-1.6342,4.287,-0.948082,0,1698647675,93
-0.2838,-1.1741,-0.1022,0.6387,0.8181,-2.8539,1.3243,0.721,9.711,0.747,4.6398,-1.4145,1.5299,-8.4363,3.0931,-1.1712,2.9945,1.9335,-1.8942,-7.3694,-1.5479,4.2527,-0.957678,0,1698647675,93
-0.2934,-1.1215,-0.0962,0.6237,0.5761,-2.3523,1.1854,0.8943,9.6704,0.7195,4.4749,-1.8303,1.5561,-8.1229,3.1984,-1.0514,2.6829,1.7718,-1.8442,-7.1837,-1.2443,4.2295,-0.949466,0,1698647675,94
-0.302,-1.0459,-0.0906,0.6051,0.3549,-2.0339,1.0985,1.0723,9.4518,0.793,4.2399,-1.935,1.5388,-7.9883,3.3108,-0.9174,2.5117,1.6811,-1.7857,-7.1631,-1.1136,4.2375,-0.896596,0,1698647675,95
-0.3096,-0.9579,-0.0862,0.5645,-0.1544,-1.8191,1.0038,1.1132,9.3237,0.931,3.8894,-1.9873,1.4657,-7.8544,3.4029,-0.8446,2.4793,1.5323,-1.6636,-7.1782,-1.0692,4.2437,-0.762686,0,1698647675,96
-0.3163,-0.8949,-0.0817,0.5271,-0.5168,-1.6428,0.908,0.9841,9.3865,0.8543,3.5132,-2.0271,1.4005,-7.7487,3.4929,-0.767,2.5343,1.363,-1.5108,-7.2101,-1.0073,4.2271,-0.641975,0,1698647675,97
-0.322,-0.8163,-0.0764,0.5165,-0.4736,-1.3968,0.8286,0.921,9.2778,0.7176,3.2194,-2.0538,1.3941,-7.6825,3.5729,-0.6866,2.496,1.2026,-1.2966,-7.2598,-0.8953,4.2167,-0.55781,0,1698647675,98
-0.3265,-0.719,-0.0708,0.5088,-0.4383,-1.2031,0.7353,0.9225,9.1172,0.6968,2.9655,-2.0472,1.3891,-7.6665,3.649,-0.6052,2.3146,1.1018,-1.0485,-7.3057,-0.8396,4.1954,-0.488744,0,1698647675,98
-0.3293,-0.6067,-0.0652,0.5141,-0.4902,-1.0042,0.6211,0.8387,9.1363,0.584,2.7266,-1.9637,1.3725,-7.695,3.7319,-0.4786,2.016,1.1173,-0.8294,-7.3669,-0.8062,4.1634,-0.513742,0,1698647675,99
-0.3301,-0.4761,-0.0584,0.5419,-0.4836,-0.801,0.5187,0.6795,9.1546,0.4143,2.5104,-1.7753,1.3544,-7.7012,3.7863,-0.3867,1.6324,1.2128,-0.6055,-7.4238,-0.7503,4.1618,-0.599267,0,1698647675,0
-0.3301,-0.3691,-0.0511,0.5515,-0.3958,-0.6347,0.4461,0.6152,9.1503,0.291,2.3134,-1.5258,1.3464,-7.7206,3.8206,-0.3111,1.2126,1.3407,-0.3915,-7.44,-0.7136,4.1785,-0.685731,0,1698647675,1
-0.3299,-0.2834,-0.044,0.5863,-0.4256,-0.4885,0.3811,0.5957,9.2724,0.1996,2.094,-1.2613,1.3197,-7.748,3.8719,-0.2307,0.7902,1.4494,-0.1895,-7.4445,-0.7174,4.2147,-0.755356,0,1698647675,2
-0.3296,-0.2171,-0.0367,0.6504,-0.4897,-0.3562,0.3034,0.5044,9.4289,0.1216,1.8306,-0.9962,1.2623,-7.7821,3.9045,-0.169,0.4059,1.5168,0.0134,-7.4574,-0.7313,4.2345,-0.809951,0,1698647675,2
-0.3295,-0.1673,-0.0296,0.6543,-0.5036,-0.2645,0.22,0.4733,9.4783,0.088,1.5767,-0.7528,1.1981,-7.8249,3.9068,-0.1361,0.1219,1.5222,0.2077,-7.4888,-0.7697,4.2336,-0.852357,0,1698647675,3
-0.3293,-0.1179,-0.0227,0.6278,-0.5418,-0.1814,0.1518,0.5085,9.5582,0.0582,1.3436,-0.4981,1.1244,-7.8555,3.9014,-0.1551,-0.0595,1.4762,0.385,-7.5292,-0.8219,4.234,-0.885204,0,1698647675,4
-0.3291,-0.08,-0.0162,0.6122,-0.5782,-0.1006,0.0946,0.4759,9.6383,0.0345,1.0987,-0.2995,1.0408,-7.8923,3.9086,-0.1873,-0.1612,1.3851,0.5431,-7.5603,-0.8686,4.2362,-0.910501,0,1698647675,5
-0.3284,-0.0465,-0.011,0.5746,-0.5264,-0.06,0.0825,0.5493,9.7172,0.0003,0.8445,-0.1946,0.9656,-7.9514,3.9346,-0.2083,-0.2036,1.2538,0.6796,-7.5909,-0.902,4.2608,-0.929984,0,1698647675,5
-0.3263,0.0052,-0.0064,0.5374,-0.4197,0.1343,0.0655,0.7081,9.3425,0.2453,0.5875,-0.1174,0.8995,-8.0304,3.9526,-0.2179,-0.2365,1.0955,0.8069,-7.621,-0.9303,4.334,-0.9452,0,1698647675,6
-0.3225,0.1069,-0.0021,0.5106,-0.4228,0.2571,0.0489,0.689,8.6367,0.6152,0.306,-0.0608,0.8302,-8.1175,3.9592,-0.2543,-0.2748,0.8968,0.9186,-7.6707,-0.9552,4.4274,-0.956981,0,1698647675,7
-0.3167,0.2543,0.0021,0.4834,-0.4807,0.2144,0.0385,0.525,8.341,0.6646,-0.0021,-0.0118,0.7552,-8.2009,3.9423,-0.2905,-0.3472,0.6342,1.0377,-7.7261,-0.9749,4.5762,-0.965036,0,1698647675,8
-0.3088,0.4213,0.0059,0.45,-0.5793,0.3099,-0.0275,0.5195,8.3612,0.5566,-0.3011,0.0374,0.6917,-8.2988,3.9169,-0.3005,-0.5082,0.495,1.1354,-7.7456,-0.9925,4.6973,-0.966449,0,1698647675,8
-0.2996,0.562,0.0094,0.4404,-0.6738,0.4318,-0.1086,0.6114,8.5729,0.405,-0.5563,0.0799,0.6459,-8.3992,3.8849,-0.2938,-0.6725,0.484,1.1856,-7.7519,-1.0546,4.7115,-0.954623,0,1698647675,9
-0.2902,0.6613,0.0134,0.4625,-0.6322,0.5146,-0.169,0.6553,8.6702,0.2461,-0.741,0.129,0.6222,-8.4795,3.8392,-0.2758,-0.7848,0.409,1.2451,-7.7509,-1.1341,4.7262,-0.934838,0,1698647675,10
-0.2805,0.7259,0.019,0.4974,-0.5854,0.6607,-0.1819,0.6779,8.6958,0.0573,-0.8903,0.1902,0.591,-8.5366,3.7968,-0.2968,-0.895,0.3457,1.2999,-7.7323,-1.175,4.7449,-0.91817,0,1698647675,11
-0.2709,0.7426,0.0251,0.5245,-0.4911,0.8236,-0.1825,0.6474,8.8479,-0.0144,-1.0566,0.265,0.5319,-8.5863,3.7619,-0.3393,-1.0436,0.3152,1.3535,-7.7004,-1.1587,4.7862,-0.905947,0,1698647675,11
-0.2627,0.7458,0.0309,0.5304,-0.2678,0.8948,-0.1974,0.5932,9.0201,0.0225,-1.1934,0.3402,0.4842,-8.6275,3.7365,-0.379,-1.2742,0.2711,1.4386,-7.6778,-1.1067,4.8778,-0.899146,0,1698647675,12
-0.2561,0.7153,0.0367,0.5198,-0.0365,0.9364,-0.204,0.5187,9.1298,0.0527,-1.2776,0.3772,0.4642,-8.6548,3.7266,-0.3783,-1.5785,0.2172,1.5404,-7.6787,-1.0914,4.9797,-0.890664,0,1698647675,13
-0.2513,0.6455,0.042,0.4828,0.2506,1.0192,-0.2165,0.3484,9.2077,0.0726,-1.3603,0.4128,0.4204,-8.7265,3.726,-0.2914,-1.977,0.1392,1.6406,-7.6809,-1.2019,5.1536,-0.868277,0,1698647675,14
-0.2489,0.5291,0.0462,0.4353,0.2537,1.0876,-0.2273,0.2901,9.364,-0.0337,-1.3262,0.4404,0.4036,-8.7814,3.7321,-0.2654,-1.9395,0.0807,1.6284,-7.6819,-1.3044,5.2222,-0.843623,0,1698647675,15
-0.2485,0.3942,0.0496,0.4115,0.2987,0.9302,-0.2144,0.2569,9.4087,-0.1262,-1.275,0.4261,0.3914,-8.8918,3.7622,-0.2706,-1.7944,-0.0099,1.5933,-7.7511,-1.3992,5.2627,-0.84124,0,1698647675,15
-0.249,0.2893,0.0536,0.4339,0.4121,0.8634,-0.1387,0.2674,9.2793,-0.125,-1.2463,0.3375,0.3794,-9.0939,3.8302,-0.3248,-1.6119,-0.1331,1.5532,-7.9131,-1.4731,5.2792,-0.862149,0,1698647675,16
-0.2492,0.2148,0.0584,0.4575,0.6093,1.0705,-0.0254,0.3275,9.3145,-0.0586,-1.2581,0.1732,0.3819,-9.3781,3.959,-0.4396,-1.4531,-0.3064,1.5153,-8.1995,-1.5006,5.341,-0.889984,0,1698647675,17
-0.2491,0.1741,0.0631,0.4463,0.6686,1.2876,0.1427,0.3372,9.9422,-0.0509,-1.2562,-0.0149,0.4555,-9.7114,4.1544,-0.5727,-1.3766,-0.5142,1.4756,-8.6014,-1.4444,5.506,-0.914281,0,1698647675,18
-0.2491,0.1424,0.0663,0.3981,0.5921,1.4827,0.3407,0.2141,10.9218,-0.112,-1.1184,-0.0912,0.6218,-10.0627,4.4173,-0.6528,-1.3742,-0.7089,1.4065,-9.053,-1.307,5.779,-0.933351,0,1698647675,18
-0.2487,0.1242,0.0676,0.3227,0.4661,1.7075,0.5719,0.0423,11.5929,-0.168,-0.8844,-0.0302,0.814,-10.4112,4.7133,-0.6113,-1.3494,-0.8823,1.328,-9.4586,-1.1211,6.1255,-0.948201,0,1698647675,19
-0.2467,0.1537,0.0675,0.2366,0.0027,2.0168,0.8223,-0.1142,11.7507,0.0675,-0.7622,0.0094,0.9411,-10.7343,5.0145,-0.5392,-1.2901,-1.0417,1.2901,-9.7822,-0.9658,6.3995,-0.959714,0,1698647675,20
-0.2421,0.236,0.0669,0.1515,-0.6487,2.2698,0.9844,-0.2343,12.1982,0.4034,-0.9503,-0.0799,0.9214,-10.9834,5.2915,-0.6251,-1.2585,-1.1476,1.282,-10.072,-0.9248,6.4591,-0.967469,0,1698647675,21
-0.2352,0.3371,0.0649,0.0586,-1.1104,2.4543,1.1034,-0.1259,12.599,0.5413,-1.3964,-0.209,0.7816,-11.1424,5.4885,-0.8504,-1.2297,-1.1582,1.245,-10.342,-0.9558,6.3298,-0.961355,0,1698647675,21
-0.2271,0.4317,0.0605,-0.0688,-1.4204,2.527,1.1584,-0.0882,13.0055,0.4081,-1.799,-0.2112,0.6262,-11.2186,5.5709,-1.0462,-1.1758,-1.0745,1.1557,-10.5221,-0.9617,6.1222,-0.909408,0,1698647675,22
-0.22,0.4821,0.0537,-0.2208,-1.0822,2.3369,1.0999,-0.5492,13.7387,0.2679,-2.0957,0.1964,0.2931,-11.0416,5.414,-1.2107,-0.9719,-0.7952,0.9409,-10.539,-0.938,5.747,-0.842165,0,1698647675,23
-0.2145,0.4596,0.044,-0.3784,-0.7364,2.2363,1.0577,-0.7299,13.335,0.4724,-2.1838,0.4317,0.0696,-10.857,5.2832,-1.2341,-0.8878,-0.6297,0.865,-10.3666,-0.8877,5.5969,-0.837616,0,1698647675,24
-0.2109,0.4104,0.0324,-0.5083,-0.622,2.1812,0.9746,-0.7848,13.0391,0.5529,-2.2675,0.6162,-0.1817,-10.6377,5.1314,-1.2734,-0.8557,-0.41,0.7958,-10.0759,-0.8486,5.4206,-0.872651,0,1698647675,24
-0.2085,0.3673,0.0198,-0.6557,-0.5859,2.1614,0.8394,-0.6617,12.6583,0.5898,-2.3428,0.7553,-0.4347,-10.3375,4.9375,-1.297,-0.6893,-0.1252,0.7131,-9.7062,-0.7796,5.1795,-0.900289,0,1698647675,25
-0.2049,0.3903,0.0052,-0.8542,-0.5128,2.1001,0.6406,-0.4883,12.0709,0.7398,-2.3816,0.8709,-0.6458,-9.9265,4.7236,-1.2731,-0.7032,0.194,0.6088,-9.2919,-0.6767,4.888,-0.921765,0,1698647675,26
-0.1978,0.5106,-0.0121,-1.0159,-0.4764,2.0737,0.3703,-0.2999,11.4639,0.9504,-2.3368,0.9812,-0.7944,-9.42,4.512,-1.2152,-0.9322,0.5178,0.4895,-8.8565,-0.5933,4.5386,-0.892938,0,1698647675,27
-0.1876,0.6608,-0.0305,-1.186,-0.4942,2.1197,0.0606,-0.0779,10.8305,1.1094,-2.2261,1.124,-0.8979,-8.8381,4.3146,-1.1986,-1.3776,0.852,0.3729,-8.4058,-0.4949,4.1135,-0.770874,0,1698647675,27
-0.1766,0.7851,-0.0481,-1.3216,-0.6836,2.2687,-0.2472,0.1913,10.6012,0.9764,-2.1402,1.321,-0.9766,-8.1809,4.143,-1.2718,-2.1855,1.19,0.2764,-7.952,-0.3947,3.6305,-0.541595,0,1698647675,28
-0.1659,0.8395,-0.0656,-1.432,-0.9304,2.5652,-0.5068,0.5682,10.6479,0.6749,-2.1553,1.5396,-1.053,-7.4988,3.9838,-1.4082,-3.003,1.4789,0.2296,-7.5535,-0.2962,3.158,-0.24359,0,1698647675,29
-0.1563,0.8451,-0.0831,-1.5279,-1.1297,2.8738,-0.7042,0.8992,10.6724,0.4211,-2.2658,1.7153,-1.1141,-6.8837,3.8497,-1.5995,-3.7633,1.6334,0.2912,-7.2825,-0.223,2.7263,0.024379,0,1698647676,30
-0.1482,0.8291,-0.1005,-1.5818,-1.2428,3.0923,-0.8557,1.0146,10.7251,0.3118,-2.3755,1.8254,-1.1045,-6.3977,3.7531,-1.8253,-4.3606,1.5728,0.5333,-7.1608,-0.1477,2.3491,0.203202,0,1698647676,31
-0.1413,0.7888,-0.1185,-1.6365,-1.3068,3.2313,-0.9445,0.8757,10.5795,0.4325,-2.5587,2.0592,-1.1583,-6.1181,3.694,-2.0207,-4.6772,1.2615,0.9285,-7.1763,-0.0565,2.1039,0.280702,0,1698647676,31
-0.1352,0.759,-0.1375,-1.6807,-1.3923,3.3307,-0.9785,0.492,10.2744,0.6424,-2.7437,2.1974,-1.1516,-6.0133,3.6415,-2.2391,-4.6367,0.9056,1.3829,-7.3204,-0.0256,2.0011,0.338926,0,1698647676,32
-0.129,0.7209,-0.1577,-1.7863,-1.4356,3.3892,-0.9777,-0.0457,10.0715,0.8804,-2.7833,1.9578,-0.918,-6.0389,3.6004,-2.4442,-4.2431,0.3163,1.8014,-7.5321,-0.0237,2.0777,0.438892,0,1698647676,33
-0.1229,0.6713,-0.1779,-1.9168,-1.4753,3.3945,-0.9097,-0.6674,9.982,1.0117,-2.7247,1.5664,-0.6061,-6.2633,3.63,-2.5253,-3.6425,-0.5734,2.1231,-7.7593,-0.006,2.3191,0.544334,0,1698647676,34
-0.1164,0.6692,-0.1989,-1.9196,-1.4218,3.3425,-0.8066,-1.29,9.8064,1.106,-2.5726,1.1226,-0.2983,-6.6738,3.7324,-2.5,-2.9545,-1.3846,2.327,-7.9785,0.0051,2.686,0.636317,0,1698647676,34
-0.1094,0.6777,-0.2191,-1.8831,-1.2234,3.2228,-0.7188,-1.8139,9.3594,1.2578,-2.4255,0.6859,-0.095,-7.1618,3.891,-2.4245,-2.2428,-2.0028,2.3745,-8.1619,-0.0031,3.107,0.713401,0,1698647676,35
-0.1027,0.6548,-0.2371,-1.9081,-0.7593,2.8753,-0.6525,-2.2759,8.6929,1.4408,-2.3578,0.2292,-0.029,-8.0896,4.3597,-2.0949,-1.1309,-2.4039,2.0361,-8.4463,-0.0192,3.8388,0.775637,0,1698647676,36
-0.0956,0.6571,-0.2542,-1.8627,-0.4668,2.6375,-0.6903,-2.2176,8.3654,1.5644,-2.4376,0.4376,-0.1483,-8.4778,4.6145,-1.8167,-0.9193,-2.325,1.7284,-8.572,0.0179,4.0858,0.823368,0,1698647676,37
-0.088,0.6659,-0.2694,-1.7358,-0.2336,2.3906,-0.7444,-2.079,8.3115,1.5772,-2.6027,0.8679,-0.3832,-8.7111,4.8266,-1.5487,-1.0071,-1.9032,1.3855,-8.6787,0.0611,4.1972,0.822826,0,1698647676,37
-0.0807,0.6605,-0.282,-1.5673,0.0438,2.1442,-0.8078,-1.9447,8.4773,1.5129,-2.7241,1.3675,-0.6203,-8.7571,4.9713,-1.367,-1.3438,-1.1197,0.8678,-8.7408,0.0706,4.2779,0.679425,0,1698647676,38
-0.0739,0.6689,-0.292,-1.3751,0.3342,1.9188,-0.8749,-1.7558,8.5778,1.3887,-2.7375,1.9072,-0.824,-8.6325,5.0227,-1.3278,-1.7348,-0.252,0.4137,-8.7131,-0.0092,4.2195,0.423002,0,1698647676,39
-0.0676,0.6601,-0.3008,-1.211,0.5846,1.7165,-0.9466,-1.5974,8.8124,1.2293,-2.6516,2.4508,-0.9848,-8.4122,5.0234,-1.3638,-2.1417,0.5915,0.3345,-8.6811,0.0403,4.204,0.159189,0,1698647676,40
-0.0618,0.6425,-0.3092,-1.1276,0.7202,1.5704,-1.021,-1.4417,8.9848,1.1219,-2.4911,2.9276,-1.0637,-8.1646,4.9598,-1.4159,-2.5932,1.003,0.4281,-8.5801,0.1536,4.2279,-0.077754,0,1698647676,40
-0.0557,0.6496,-0.3183,-1.0928,0.6943,1.4663,-1.3447,-1.3158,9.1778,0.9483,-2.3,3.2724,-1.0951,-7.9379,4.8537,-1.4456,-2.8919,0.9561,0.6328,-8.3394,0.1061,4.1592,-0.271978,0,1698647676,41
-0.0493,0.6472,-0.328,-1.0458,0.5276,1.4459,-1.6294,-1.2136,9.5759,0.6965,-2.2214,3.4618,-1.1579,-7.738,4.7456,-1.446,-2.9049,0.7655,0.8524,-8.0713,0.0519,4.146,-0.425769,0,1698647676,42
-0.0431,0.6268,-0.3375,-1.0137,0.382,1.4275,-1.6417,-1.1535,9.7034,0.6655,-2.2822,3.4564,-1.2561,-7.5578,4.6128,-1.4078,-2.7019,0.522,0.9906,-7.7983,0.0097,4.1408,-0.522777,0,1698647676,43
-0.0373,0.6004,-0.347,-1.0166,-0.0593,1.3553,-1.6658,-1.0964,9.7774,0.7222,-2.4164,3.3005,-1.3826,-7.4762,4.4872,-1.2696,-2.396,0.2033,1.1149,-7.5116,-0.0816,4.1592,-0.421651,0,1698647676,44
-0.0318,0.5886,-0.3562,-1.0095,-0.4335,1.3001,-1.6564,-1.1905,9.7976,0.7622,-2.547,3.0123,-1.457,-7.4389,4.3546,-1.1214,-2.0775,-0.1064,1.2252,-7.2233,-0.1535,4.1816,-0.167927,0,1698647676,44
-0.0267,0.5904,-0.3654,-0.9885,-0.4489,1.2495,-1.6107,-1.3291,9.5587,0.8483,-2.5215,2.7161,-1.4458,-7.4148,4.2096,-1.0316,-1.7406,-0.387,1.3065,-7.0065,-0.2078,4.1842,0.049993,0,1698647676,45
-0.0221,0.5903,-0.3748,-0.9852,-0.5606,1.1114,-1.5496,-1.4742,9.4121,0.8799,-2.3713,2.4971,-1.409,-7.4084,4.109,-0.9609,-1.4124,-0.6127,1.3322,-6.8806,-0.2342,4.1649,0.197245,0,1698647676,46
-0.0174,0.5734,-0.383,-0.9748,-0.794,1.0126,-1.4741,-1.7296,9.4941,0.7254,-2.2811,2.3219,-1.4119,-7.401,4.0734,-0.9257,-1.0953,-0.8101,1.2934,-6.8251,-0.255,4.1467,0.279398,0,1698647676,47
-0.0131,0.531,-0.3904,-0.9478,-1.0732,0.9768,-1.3617,-1.9261,9.6065,0.4682,-2.2886,2.2079,-1.4798,-7.415,4.0925,-0.9189,-0.7902,-0.9941,1.2419,-6.8196,-0.2714,4.2111,0.344336,0,1698647676,47
-0.0093,0.4912,-0.3971,-0.9261,-1.2671,0.8612,-1.2097,-1.9785,9.6975,0.3335,-2.2892,2.1612,-1.5402,-7.4152,4.1395,-0.9118,-0.5651,-1.0672,1.1584,-6.829,-0.212,4.325,0.410664,0,1698647676,48
-0.0054,0.4905,-0.4026,-0.8597,-1.1424,0.6189,-1.0601,-1.9211,9.5852,0.4303,-2.1875,2.1632,-1.5641,-7.4237,4.1917,-0.9236,-0.427,-1.0438,1.0434,-6.8532,-0.1308,4.448,0.382919,0,1698647676,49
-0.0008,0.5003,-0.4065,-0.7372,-1.0226,0.4426,-0.9038,-1.827,9.2854,0.5101,-1.9943,2.1989,-1.5571,-7.4562,4.2435,-0.9858,-0.4091,-0.8825,0.8935,-6.912,-0.0413,4.594,0.26606,0,1698647676,50
0.004,0.4958,-0.4087,-0.6052,-1.1945,0.4173,-0.7356,-1.6904,9.0699,0.4435,-1.7496,2.2283,-1.532,-7.4988,4.3157,-1.0602,-0.4464,-0.6439,0.7208,-6.9812,0.0432,4.7595,0.155472,0,1698647676,50
0.0084,0.4856,-0.4094,-0.4868,-1.3579,0.3891,-0.5964,-1.5567,9.048,0.407,-1.5042,2.2009,-1.5143,-7.5778,4.4109,-1.1175,-0.4711,-0.4312,0.556,-7.0697,0.1163,4.9124,0.053214,0,1698647676,51
0.0128,0.4613,-0.4093,-0.3865,-1.5589,0.3988,-0.4891,-1.4013,9.1739,0.3615,-1.3059,2.1344,-1.4963,-7.6911,4.5116,-1.143,-0.4622,-0.2473,0.3999,-7.1986,0.1658,4.9965,-0.081956,0,1698647676,52
0.0179,0.4515,-0.409,-0.2989,-1.7509,0.396,-0.4168,-1.313,9.3554,0.2784,-1.1757,2.0444,-1.4643,-7.7705,4.5887,-1.2059,-0.4561,-0.1011,0.2897,-7.3391,0.2035,5.0981,-0.237794,0,1698647676,53
0.0236,0.4689,-0.4088,-0.2108,-1.8616,0.4118,-0.3454,-1.2502,9.4135,0.147,-1.1274,1.92,-1.4157,-7.8231,4.6494,-1.2742,-0.54,0.073,0.2339,-7.4739,0.2181,5.1946,-0.360583,0,1698647676,53
0.0288,0.4797,-0.4085,-0.1361,-1.8854,0.4522,-0.2763,-1.2028,9.4017,0.0887,-1.1223,1.7696,-1.3524,-7.8945,4.6866,-1.2824,-0.7091,0.3199,0.2,-7.5772,0.1862,5.2416,-0.453806,0,1698647676,54
0.0336,0.4693,-0.4078,-0.0689,-1.8656,0.4938,-0.2345,-1.182,9.1584,0.2314,-1.0945,1.6162,-1.281,-7.9771,4.6626,-1.2644,-0.8711,0.6062,0.1531,-7.6363,0.1279,5.255,-0.524552,0,1698647676,55
0.039,0.4952,-0.4052,0.0314,-2.0411,0.469,-0.1816,-1.2771,9.0381,0.3385,-1.0252,1.4621,-1.2136,-8.0371,4.6122,-1.2502,-0.9459,0.838,0.1006,-7.6564,0.0701,5.2468,-0.582941,0,1698647676,56
0.0443,0.5211,-0.4001,0.1509,-2.243,0.4719,-0.1149,-1.496,9.2801,0.176,-0.9253,1.3373,-1.1588,-8.0708,4.5522,-1.2691,-0.9042,0.9933,0.0265,-7.6444,0.0276,5.2139,-0.636276,0,1698647676,56
0.0489,0.5008,-0.3932,0.2685,-2.26,0.5508,-0.0657,-1.564,9.2799,0.0199,-0.8256,1.2191,-1.1264,-8.1138,4.4834,-1.2642,-0.802,1.0765,-0.0455,-7.611,-0.0046,5.1758,-0.683265,0,1698647676,57
0.0536,0.4837,-0.3849,0.3827,-2.1148,0.4639,-0.0446,-1.6085,9.0071,0.0756,-0.7387,1.0727,-1.108,-8.1796,4.4147,-1.2121,-0.674,1.0848,-0.0929,-7.5819,-0.0312,5.1684,-0.728978,0,1698647676,58
0.0595,0.4975,-0.3752,0.4926,-1.8205,0.2992,-0.0767,-1.7759,8.7939,0.1731,-0.644,0.907,-1.0869,-8.2595,4.3437,-1.155,-0.4791,1.0214,-0.1331,-7.5809,-0.0767,5.1798,-0.777851,0,1698647676,59
0.0664,0.5267,-0.3649,0.5911,-1.5109,0.1551,-0.1178,-1.9318,8.5834,0.1972,-0.5091,0.7391,-1.0467,-8.3457,4.2875,-1.147,-0.1863,0.846,-0.1626,-7.6339,-0.1316,5.2282,-0.823039,0,1698647676,60
0.0728,0.5757,-0.3552,0.6547,-1.2057,-0.0174,-0.1464,-2.0538,8.5129,0.2384,-0.331,0.5567,-0.9609,-8.431,4.262,-1.1932,0.1877,0.6016,-0.2197,-7.7347,-0.1448,5.3328,-0.825586,0,1698647676,60
0.0788,0.605,-0.3455,0.6971,-0.868,-0.2093,-0.166,-2.1635,8.5811,0.3966,-0.1339,0.3392,-0.85,-8.5323,4.2877,-1.2489,0.5787,0.3222,-0.316,-7.8559,-0.1353,5.4433,-0.825034,0,1698647676,61
0.0845,0.5826,-0.3359,0.7101,-0.5896,-0.4103,-0.1446,-2.2388,8.7557,0.4443,0.0516,0.1123,-0.7348,-8.6444,4.3659,-1.3089,0.8859,0.0627,-0.4291,-7.9884,-0.079,5.5205,-0.859552,0,1698647676,62
0.0891,0.5533,-0.3276,0.6827,-0.5974,-0.5775,-0.1152,-2.2133,8.9584,0.3889,0.2153,-0.1006,-0.6181,-8.7489,4.4675,-1.3647,1.0742,-0.1569,-0.5425,-8.1209,0.0072,5.562,-0.88951,0,1698647676,63
0.0932,0.5241,-0.3213,0.6394,-0.5575,-0.7671,-0.1077,-2.1428,8.9971,0.3352,0.3825,-0.3162,-0.5138,-8.8501,4.5708,-1.4152,1.1872,-0.3461,-0.6477,-8.2329,0.0793,5.5705,-0.912738,0,1698647676,63
0.0973,0.501,-0.3182,0.5413,-0.2751,-0.9552,-0.0993,-2.0781,9.0582,0.1339,0.5473,-0.5135,-0.4422,-8.9097,4.7188,-1.4991,1.2494,-0.4846,-0.7422,-8.337,0.144,5.591,-0.930965,0,1698647676,64
0.1008,0.4575,-0.3185,0.3948,-0.0081,-1.1414,-0.0757,-2.069,9.1263,-0.0764,0.7247,-0.6804,-0.4062,-8.9648,4.8956,-1.6107,1.3071,-0.6203,-0.8096,-8.4831,0.1708,5.6216,-0.944567,0,1698647676,65
0.1031,0.3983,-0.3196,0.2812,0.3766,-1.355,-0.0574,-2.1395,9.479,-0.3478,0.9589,-0.8603,-0.3569,-9.1113,5.0297,-1.7172,1.4576,-0.7717,-0.8483,-8.6955,0.1227,5.6165,-0.944636,0,1698647676,66
0.1044,0.3366,-0.32,0.2159,0.6226,-1.515,-0.0611,-2.1691,10.0892,-0.6227,1.2592,-1.0699,-0.2777,-9.3772,5.1197,-1.7564,1.7253,-0.8978,-0.9661,-8.9077,0.0329,5.6099,-0.918049,0,1698647676,66
0.1049,0.2632,-0.3195,0.1874,0.6142,-1.7244,-0.133,-2.1985,10.8869,-0.7213,1.6015,-1.2881,-0.1651,-9.7117,5.1425,-1.7253,2.0424,-0.9651,-1.2008,-9.0542,-0.09,5.6574,-0.879301,0,1698647676,67
0.105,0.2022,-0.3181,0.2012,0.7637,-1.9954,-0.2945,-2.2668,11.3466,-0.6658,1.962,-1.5267,-0.0137,-10.0531,5.0986,-1.6806,2.4505,-1.0319,-1.4718,-9.1863,-0.2673,5.7592,-0.818844,0,1698647676,68
0.1048,0.1525,-0.315,0.2634,0.9241,-2.1351,-0.4719,-2.1324,11.1798,-0.4079,2.2488,-1.7758,0.1125,-10.4158,5.0192,-1.6146,2.8187,-1.163,-1.6754,-9.3563,-0.4082,5.9583,-0.720159,0,1698647676,69
0.1043,0.0963,-0.3081,0.3803,1.1118,-2.2521,-0.6191,-1.9167,11.0094,0.0397,2.4153,-2.0214,0.1883,-10.736,4.9338,-1.6374,3.0041,-1.3236,-1.8037,-9.5469,-0.5384,6.1472,-0.599462,0,1698647676,69
0.1039,0.0503,-0.2971,0.586,1.3896,-2.4069,-0.7309,-1.7239,11.1234,0.4272,2.5643,-2.2104,0.2557,-10.9556,4.8389,-1.7887,3.1456,-1.4654,-1.9775,-9.7335,-0.7163,6.2517,-0.481566,0,1698647676,70
0.1031,0.0057,-0.2844,0.7711,2.0417,-2.4428,-0.8117,-1.4564,10.2843,1.2742,2.6766,-2.2788,0.2995,-11.0911,4.7146,-1.9712,3.2333,-1.5866,-2.1756,-9.9021,-0.8751,6.2767,-0.406478,0,1698647676,71
0.1002,-0.0656,-0.2715,0.8496,2.5857,-2.5704,-0.9027,-1.0935,9.1036,2.2814,2.7101,-2.233,0.2935,-11.1085,4.5566,-2.1565,3.2588,-1.6518,-2.3218,-10.0414,-0.992,6.2111,-0.361563,0,1698647676,72
0.0949,-0.189,-0.2599,0.8756,2.3819,-2.459,-0.952,-0.9908,9.7145,2.6733,2.7106,-2.1362,0.2548,-11.0148,4.3797,-2.2673,3.2837,-1.6087,-2.4242,-10.1004,-1.0865,6.0982,-0.324995,0,1698647676,73
0.087,-0.3888,-0.2504,0.8461,2.3089,-2.1126,-0.9264,-1.1034,10.7289,2.6785,2.7101,-2.0285,0.2136,-10.8284,4.1815,-2.3245,3.2886,-1.4355,-2.503,-10.0239,-1.1648,5.9196,-0.292096,0,1698647676,73
0.0763,-0.6279,-0.2433,0.7909,2.4507,-1.9909,-0.8775,-1.0524,10.9726,2.4573,2.7259,-1.9015,0.1893,-10.5377,3.9499,-2.3965,3.2157,-1.1441,-2.5573,-9.8259,-1.2119,5.6726,-0.280173,0,1698647676,74
0.063,-0.8176,-0.2389,0.7111,2.3341,-1.8853,-0.7952,-1.0804,11.1676,2.1423,2.8098,-1.7457,0.2062,-10.1617,3.6972,-2.4419,2.946,-0.7857,-2.5663,-9.5257,-1.2427,5.383,-0.311787,0,1698647676,75
0.0484,-0.9849,-0.2359,0.6389,2.1839,-1.7795,-0.6853,-1.2241,11.1167,1.9494,2.9618,-1.6017,0.2628,-9.7112,3.4542,-2.4219,2.5065,-0.3838,-2.5613,-9.1504,-1.2863,5.0447,-0.385836,0,1698647676,76
0.0333,-1.1147,-0.2323,0.5896,1.7656,-1.693,-0.5752,-1.1854,10.4343,1.9789,3.1635,-1.4694,0.3204,-9.2006,3.2157,-2.3601,2.0441,0.0188,-2.56,-8.7343,-1.3502,4.655,-0.494485,0,1698647676,76
0.0168,-1.2548,-0.2273,0.5707,1.2311,-1.6914,-0.4633,-1.2813,9.8124,1.927,3.4292,-1.3001,0.3821,-8.6477,2.9653,-2.3121,1.6448,0.3834,-2.5684,-8.3191,-1.4139,4.2617,-0.603385,0,1698647676,77
-0.0012,-1.4175,-0.2211,0.6098,0.9795,-1.8112,-0.3568,-1.5538,9.7046,1.7661,3.6943,-1.1321,0.4633,-8.0795,2.7245,-2.2896,1.3211,0.6973,-2.5877,-7.9376,-1.4669,3.8754,-0.691938,0,1698647676,78
-0.0202,-1.5469,-0.2136,0.6647,0.7568,-1.9145,-0.2271,-1.5819,9.5529,1.6019,3.9497,-1.0518,0.5946,-7.5758,2.5076,-2.2661,1.1037,0.8849,-2.56,-7.6044,-1.515,3.5193,-0.760719,0,1698647676,79
-0.041,-1.6877,-0.2047,0.7346,0.5489,-2.0859,-0.0438,-1.5698,9.348,1.4361,4.1609,-1.1258,0.7588,-7.2127,2.3468,-2.1929,1.0585,0.8806,-2.4303,-7.3546,-1.5329,3.2553,-0.814143,0,1698647676,79
-0.063,-1.7918,-0.1952,0.8189,0.3022,-2.3153,0.1566,-1.5731,9.3757,1.2095,4.4578,-1.3272,0.9391,-7.0034,2.2701,-2.0355,1.2687,0.6881,-2.2069,-7.1919,-1.4893,3.1098,-0.854675,0,1698647676,80
-0.0857,-1.8953,-0.1857,0.871,0.045,-2.5395,0.3352,-1.5667,9.5559,0.9464,4.541,-1.6226,1.1329,-6.8766,2.2377,-1.9127,1.6519,0.3647,-1.9566,-7.0998,-1.3956,3.0422,-0.860657,0,1698647676,81
-0.1077,-1.9623,-0.1774,0.8681,-0.2503,-2.6984,0.4867,-1.4254,9.74,0.6859,4.3023,-2.0592,1.3575,-6.857,2.2604,-1.8417,2.0842,-0.033,-1.7248,-7.0741,-1.3046,3.0448,-0.749629,0,1698647676,82
-0.1287,-1.9571,-0.1699,0.8539,-0.3867,-2.8524,0.6104,-1.1512,9.7588,0.7548,4.1041,-2.5806,1.6402,-6.9724,2.3564,-1.7592,2.5197,-0.4579,-1.5038,-7.1026,-1.2067,3.1711,-0.573958,0,1698647676,82
-0.1488,-1.9236,-0.1626,0.8291,-0.2464,-3.1536,0.7098,-0.9097,9.6378,1.1419,3.8854,-3.064,1.934,-7.176,2.4817,-1.7038,2.9014,-0.8569,-1.3006,-7.2001,-1.1156,3.4255,-0.440186,0,1698647676,83
-0.1675,-1.8457,-0.1557,0.7932,0.0364,-3.4539,0.7854,-0.6962,9.4326,1.4921,3.5996,-3.4983,2.1834,-7.4645,2.6282,-1.6663,3.1995,-1.1821,-1.1487,-7.3598,-1.0781,3.7303,-0.337019,0,1698647676,84
-0.1846,-1.733,-0.1487,0.766,0.3592,-3.6234,0.85,-0.4982,9.245,1.7068,3.2873,-3.8288,2.3559,-7.8,2.7952,-1.6754,3.4465,-1.3905,-1.0768,-7.5605,-1.1398,4.0056,-0.255661,0,1698647676,85
-0.2004,-1.6728,-0.1417,0.7563,0.5051,-3.576,0.9164,-0.2817,9.0519,1.6879,3.0967,-3.956,2.4668,-8.1481,2.954,-1.6482,3.6323,-1.3878,-1.1078,-7.7843,-1.2433,4.2707,-0.191025,0,1698647676,85
-0.2154,-1.6255,-0.1342,0.7668,0.6653,-3.4318,0.9927,-0.1159,8.8351,1.6568,3.0654,-3.8545,2.4925,-8.4716,3.0846,-1.5309,3.6497,-1.1412,-1.2112,-7.9722,-1.2983,4.5605,-0.140088,0,1698647676,86
-0.2289,-1.5451,-0.1266,0.7804,0.8476,-3.3181,1.0707,0.0142,8.8522,1.6696,3.1357,-3.5422,2.4366,-8.7328,3.1976,-1.3912,3.5073,-0.74,-1.3136,-8.0768,-1.376,4.8156,-0.099081,0,1698647676,87
-0.2418,-1.511,-0.1191,0.7823,1.0046,-3.1446,1.1535,0.18,8.8107,1.6523,3.261,-3.0772,2.296,-8.938,3.3083,-1.2492,3.2807,-0.2417,-1.3685,-8.1075,-1.4511,4.948,-0.064172,0,1698647676,88
-0.2544,-1.4529,-0.111,0.7876,1.2084,-2.9638,1.2433,0.3135,8.7218,1.6477,3.2458,-2.5958,2.0513,-9.0405,3.4279,-1.1619,3.0008,0.3081,-1.3796,-8.0793,-1.4899,4.9497,-0.024655,0,1698647676,89
-0.2663,-1.3624,-0.1031,0.7978,1.2917,-2.7501,1.3395,0.3988,8.8144,1.5617,3.1241,-2.1913,1.7854,-8.9905,3.5072,-1.1415,2.8047,0.8348,-1.3643,-7.9812,-1.531,4.8579,0.046988,0,1698647676,89
-0.2774,-1.3181,-0.0953,0.8015,1.341,-2.4776,1.4492,0.4629,8.8121,1.484,3.0262,-1.8736,1.5567,-8.8523,3.544,-1.1004,2.7282,1.2908,-1.3141,-7.848,-1.5183,4.6996,0.158829,0,1698647676,90
-0.288,-1.2946,-0.088,0.7758,1.3308,-2.2241,1.548,0.5314,8.8723,1.4456,2.9433,-1.6286,1.3638,-8.6543,3.5784,-1.0341,2.7054,1.5845,-1.2257,-7.7216,-1.4296,4.5267,0.272682,0,1698647676,91
-0.298,-1.2302,-0.0812,0.7402,1.2623,-1.9753,1.6333,0.5595,9.0064,1.3743,2.8747,-1.3727,1.1568,-8.3767,3.6051,-0.9991,2.7124,1.7504,-1.1366,-7.5799,-1.3324,4.3606,0.359315,0,1698647676,92
-0.3073,-1.1481,-0.0744,0.7361,1.204,-1.7582,1.7003,0.5091,9.2213,1.2519,2.8307,-1.1663,0.9781,-8.1563,3.6083,-0.9393,2.6736,1.9636,-1.0878,-7.4417,-1.2435,4.1554,0.417538,0,1698647676,92
-0.3155,-1.0963,-0.0679,0.7064,1.0778,-1.5273,1.7456,0.5093,9.4005,1.0579,2.7941,-1.0783,0.8607,-7.9694,3.607,-0.8566,2.6238,2.1778,-1.0823,-7.3339,-1.1314,3.9905,0.450087,0,1698647676,93
-0.3231,-1.0192,-0.0616,0.6876,0.84,-1.25,1.7817,0.5127,9.4624,0.8353,2.7306,-1.039,0.8095,-7.741,3.6249,-0.7789,2.5655,2.2496,-1.0482,-7.248,-0.9925,3.9192,0.474233,0,1698647676,94
-0.3299,-0.9053,-0.0545,0.6982,0.5862,-1.0423,1.7781,0.4821,9.6064,0.6504,2.6507,-0.994,0.8362,-7.5741,3.6343,-0.6782,2.4359,2.1971,-0.951,-7.1625,-0.8453,3.8711,0.505552,0,1698647676,95
-0.3352,-0.7967,-0.0477,0.7036,0.4965,-0.9031,1.7293,0.5121,9.6863,0.5583,2.5298,-0.9309,0.8799,-7.4634,3.6536,-0.5757,2.2764,2.0618,-0.8047,-7.0964,-0.7251,3.8699,0.542991,0,1698647676,95
-0.3393,-0.6945,-0.0414,0.7141,0.4004,-0.7626,1.6693,0.5186,9.5577,0.5395,2.3685,-0.8529,0.9131,-7.3916,3.6933,-0.4637,2.1108,1.9208,-0.6315,-7.0892,-0.6347,3.8967,0.589354,0,1698647676,96
-0.3429,-0.5892,-0.0348,0.7172,0.2312,-0.6619,1.5809,0.44,9.3945,0.5214,2.159,-0.7446,0.9328,-7.3559,3.7467,-0.3436,1.8969,1.8659,-0.4782,-7.106,-0.5864,3.9378,0.639074,0,1698647676,97
-0.3456,-0.4919,-0.0288,0.6909,0.0886,-0.6187,1.45,0.3326,9.3837,0.5148,1.9135,-0.5957,0.9363,-7.3618,3.803,-0.2311,1.6175,1.8701,-0.342,-7.1381,-0.5812,3.9783,0.658629,0,1698647676,98
-0.3472,-0.4,-0.023,0.6769,0.0061,-0.5946,1.3032,0.2522,9.2909,0.5281,1.6794,-0.4111,0.9219,-7.4095,3.8381,-0.1247,1.3135,1.8785,-0.1963,-7.1766,-0.5777,4.0207,0.518023,0,1698647676,98
-0.3477,-0.3223,-0.0167,0.6601,-0.0675,-0.5715,1.1474,0.2299,9.1164,0.5069,1.4864,-0.2054,0.9099,-7.4841,3.8528,-0.0506,1.0118,1.8526,-0.0362,-7.2105,-0.599,4.0691,0.233109,0,1698647676,99
-0.3477,-0.2571,-0.011,0.6144,-0.1996,-0.5732,0.9881,0.2312,9.0606,0.4279,1.3332,-0.015,0.8929,-7.5718,3.872,-0.054,0.7373,1.7899,0.1274,-7.247,-0.6648,4.1308,-0.035101,0,1698647676,0
-0.3477,-0.2025,-0.0059,0.5782,-0.3695,-0.5975,0.8268,0.2239,9.0824,0.2856,1.1835,0.1704,0.8575,-7.6942,3.8992,-0.0746,0.5029,1.7063,0.286,-7.2842,-0.7426,4.2017,-0.249564,0,1698647676,1
-0.3475,-0.16,-0.0008,0.5564,-0.5449,-0.6301,0.6649,0.2103,9.1084,0.1563,1.0263,0.3433,0.801,-7.8507,3.9067,-0.0758,0.256,1.6618,0.3989,-7.2912,-0.7902,4.2464,-0.416821,0,1698647676,2
-0.3474,-0.1243,0.0044,0.552,-0.688,-0.6451,0.5102,0.2197,9.1955,0.0222,0.8692,0.4794,0.7265,-7.9934,3.8912,-0.122,-0.009,1.6093,0.4611,-7.284,-0.8392,4.3043,-0.545922,0,1698647676,2
