right_q,right_q_dot,left_q,left_q_dot,pelv_ang_1,pelv_ang_2,pelv_ang_3,pelv_acc_1,pelv_acc_1,pelv_acc_3,right_chest_ang_x,right_chest_ang_y,right_chest_ang_z,right_chest_acc_x,right_chest_acc_y,right_chest_acc_z,left_chest_ang_x,left_chest_ang_y,left_chest_ang_z,left_chest_acc_x,left_chest_acc_y,left_chest_acc_z,,,,Label
-0.286,-0.2858,0.0264,0.1005,-0.4731,-0.2479,0.6344,1.4046,9.4422,1.907,-0.273,0.5966,-0.6648,-7.451,4.9358,3.23,0.5275,1.1733,0.0762,-8.5105,-4.1988,-0.0409,0.991423,0,1698373571.9876,0
-0.286,-0.2494,0.0269,0.0891,-0.4558,-0.0807,0.6543,1.3486,9.3726,1.9259,-0.1417,0.7383,-0.6319,-7.428,4.8618,3.1896,0.2794,1.2682,0.1857,-8.4529,-4.213,-0.1066,0.984434,0,1698373571.9979,1
-0.286,-0.2114,0.0271,0.0741,-0.4032,0.0304,0.6596,1.302,9.3486,1.9155,0.0549,0.9038,-0.5808,-7.4237,4.7837,3.1708,0.0151,1.3727,0.2758,-8.389,-4.2341,-0.1761,0.976065,0,1698373572.0086,1
-0.2859,-0.1693,0.0271,0.0582,-0.2728,0.1494,0.6437,1.1244,9.2794,1.9819,0.5657,1.1968,-0.5032,-7.4357,4.5971,3.0968,-0.5458,1.6085,0.4194,-8.2716,-4.31,-0.2997,0.960505,0,1698373572.0203,2
-0.2857,-0.1334,0.0271,0.0481,-0.2142,0.1214,0.6113,0.9987,9.3868,1.94,0.8038,1.288,-0.4995,-7.4829,4.5413,3.0559,-0.7733,1.7128,0.483,-8.2345,-4.3744,-0.3239,0.943765,0,1698373572.0318,3
-0.2855,-0.1057,0.0271,0.0427,-0.2002,0.0741,0.5546,0.8941,9.5017,1.8016,1.0007,1.3521,-0.5078,-7.5647,4.5182,3.0555,-0.927,1.7904,0.5374,-8.2271,-4.4547,-0.327,0.917734,0,1698373572.0431,3
-0.2854,-0.075,0.0271,0.044,-0.2002,0.0741,0.5546,0.8941,9.5017,1.8016,1.0007,1.3521,-0.5078,-7.5647,4.5182,3.0555,-0.927,1.7904,0.5374,-8.2271,-4.4547,-0.327,0.882667,0,1698373572.0533,4
-0.2854,-0.0589,0.0271,0.0399,-0.2454,-0.0883,0.3676,0.8237,9.792,1.5088,-45.607498,1.3975,-0.5229,-7.7415,4.5249,3.0936,-0.9422,1.8066,0.6322,-8.2822,-4.6107,-0.3208,0.881277,0,1698373572.0652,4
-0.2854,-0.0399,0.0272,0.0185,-0.3088,-0.1621,0.2443,0.8616,9.9523,1.363,-35.044998,1.3842,-0.5174,-7.8343,4.5541,3.1168,-0.8843,1.7602,0.6627,-8.3304,-4.6756,-0.3358,0.685194,0,1698373572.0762,5
-0.2854,-0.0173,0.0276,0.007,-0.3793,-0.239,0.1153,0.8914,10.0845,1.2644,-26.854401,1.3459,-0.4876,-7.9157,4.595,3.1321,-0.7976,1.684,0.683,-8.3844,-4.7175,-0.3557,0.532157,0,1698373572.0867,6
-0.2854,-0.019,0.0284,0.0185,-0.4802,-0.2971,-0.0215,0.9054,10.1458,1.1959,-20.507,1.2683,-0.4184,-7.9706,4.6463,3.1649,-0.6859,1.5772,0.6962,-8.455,-4.7361,-0.3706,0.635675,0,1698373572.0964,6
-0.2854,-0.01,0.03,0.0615,-0.5951,-0.2885,-0.1457,0.9986,10.0533,1.1312,-15.6074,1.1433,-0.3093,-7.9946,4.7024,3.2032,-0.5719,1.4456,0.7022,-8.5402,-4.7305,-0.3937,0.717017,0,1698373572.1069,7
-0.2854,0.0039,0.0324,0.133,-0.6793,-0.2409,-0.2694,1.1308,10.0484,1.0932,-11.8444,0.978,-0.1734,-8.0078,4.7679,3.2043,-0.4893,1.3033,0.7069,-8.6158,-4.6879,-0.4237,0.780199,0,1698373572.1174,8
-0.2854,0.0142,0.0347,0.1772,-0.6594,-0.1783,-0.4013,1.2191,10.0928,1.0758,-8.9719,0.79,-0.015,-8.0117,4.8364,3.187,-0.4627,1.1664,0.7156,-8.6695,-4.6249,-0.4515,0.829273,0,1698373572.1274,8
-0.2854,0.0208,0.0368,0.1963,-0.5835,-0.0633,-0.5225,1.2848,9.8855,1.1002,-6.8054,0.6082,0.1668,-7.9765,4.9084,3.1765,-0.4889,1.0388,0.7301,-8.7135,-4.5482,-0.4899,0.867349,0,1698373572.1377,9
-0.2854,0.0119,0.039,0.2002,-0.6012,0.1351,-0.6422,1.4362,9.577,1.1747,-5.1858,0.4482,0.3634,-7.9094,4.976,3.152,-0.5544,0.9124,0.7524,-8.7424,-4.4512,-0.5201,0.89553,0,1698373572.149,10
-0.2855,-0.0106,0.0414,0.1913,-0.802,0.7065,-0.8854,1.9447,9.7256,1.196,-3.148,0.1878,0.7282,-7.7398,5.0379,3.03,-0.7439,0.6325,0.827,-8.7291,-4.2536,-0.595,0.906079,0,1698373572.1602,10
-0.2856,-0.0227,0.0445,0.2031,-0.644,1.0075,-0.9727,2.0581,9.7542,1.1652,-2.5392,0.0935,0.8949,-7.6582,5.021,2.9816,-0.8846,0.4775,0.8814,-8.6979,-4.1547,-0.6679,0.892065,0,1698373572.1716,11
-0.2856,-0.0171,0.0479,0.2281,-0.4232,1.3571,-1.0276,2.0888,9.6027,1.1215,-2.1073,0.0221,1.0491,-7.5907,4.9983,2.9477,-1.0807,0.3213,0.9406,-8.6594,-4.0616,-0.7634,0.86571,0,1698373572.1832,12
-0.2856,-0.001,0.051,0.2409,-0.2475,1.7574,-1.0814,2.0963,9.4971,1.0873,-1.834,-0.0267,1.1979,-7.5311,4.9892,2.9292,-1.3251,0.1565,1.0011,-8.6226,-3.9768,-0.8749,0.835498,0,1698373572.1942,12
-0.2855,0.0086,0.0525,0.2162,0.1259,2.1714,-1.1539,2.0949,9.565,1.0602,-1.7325,-0.0628,1.3526,-7.4776,5.0291,2.9313,-1.6198,-0.0362,1.0601,-8.625,-3.9034,-0.9781,0.704475,0,1698373572.2052,13
-0.2854,0.0119,0.0526,0.1649,0.421,2.5697,-1.2238,2.0035,9.5292,1.0771,-1.8062,-0.084,1.5222,-7.4406,5.1241,2.9397,-1.9713,-0.2797,1.105,-8.6937,-3.8416,-1.0489,0.446375,0,1698373572.2159,13
-0.2854,0.0179,0.0524,0.1247,0.41,2.9643,-1.2832,1.8721,9.4322,1.1552,-2.0143,-0.1014,1.6991,-7.4445,5.2609,2.9342,-2.4293,-0.5966,1.1254,-8.8387,-3.7796,-1.1146,0.380301,0,1698373572.2266,14
-0.2852,0.0183,0.0521,0.0826,0.4073,3.3449,-1.3388,1.7318,9.6156,1.25,-2.3233,-0.1413,1.8758,-7.5239,5.4628,2.909,-3.0322,-0.9834,1.1259,-9.0845,-3.7262,-1.1942,0.518652,0,1698373572.2367,15
-0.2844,0.0401,0.0519,0.0491,0.32,3.6763,-1.3538,1.478,10.2512,1.3053,-2.7133,-0.1919,2.053,-7.6596,5.737,2.8812,-3.6939,-1.3724,1.1016,-9.4226,-3.725,-1.2451,0.626123,0,1698373572.2469,15
-0.2826,0.0897,0.051,0.012,0.1031,4.0624,-1.2879,1.2373,10.8758,1.2199,-3.122,-0.2201,2.2384,-7.8126,6.0288,2.8644,-4.2471,-1.6567,1.0529,-9.7628,-3.776,-1.2445,0.709598,0,1698373572.258,16
-0.2794,0.169,0.0487,-0.0649,-0.1088,4.3393,-1.1856,0.972,11.4024,1.0929,-3.4274,-0.1934,2.4088,-7.9994,6.2587,2.8364,-4.595,-1.7736,1.0057,-10.0377,-3.849,-1.2088,0.774436,0,1698373572.2693,17
-0.2744,0.2571,0.0447,-0.162,-0.093,4.3024,-0.9595,0.233,11.9763,1.418,-3.4321,0.1118,2.5776,-8.4019,6.4827,2.7957,-4.5215,-1.619,1.0782,-10.3108,-4.019,-1.1633,0.824797,0,1698373572.2807,17
-0.2679,0.3219,0.0389,-0.2534,0.09,4.1839,-0.8555,-0.1366,11.7964,1.6277,-3.1613,0.3703,2.5419,-8.6001,6.4643,2.7916,-4.209,-1.5108,1.1821,-10.2893,-4.0797,-1.1848,0.863914,0,1698373572.2914,18
-0.2618,0.3457,0.0318,-0.3211,0.2985,3.9889,-0.7628,-0.4402,11.5014,1.7859,-2.8444,0.6307,2.4519,-8.7393,6.4213,2.7852,-3.8086,-1.431,1.2901,-10.1738,-4.0908,-1.2378,0.894297,0,1698373572.3029,19
-0.2574,0.334,0.0242,-0.4035,0.5815,3.753,-0.7334,-0.5768,11.0154,1.9223,-2.5173,0.833,2.3378,-8.7555,6.3361,2.7661,-3.3903,-1.3801,1.3808,-9.9835,-4.0277,-1.3337,0.917898,0,1698373572.3142,19
-0.2532,0.3261,0.0159,-0.4868,0.8815,3.4726,-0.8145,-0.6421,10.585,2.0738,-2.1823,0.9364,2.2124,-8.6494,6.1972,2.7228,-3.0057,-1.3491,1.4504,-9.7473,-3.8833,-1.4278,0.936229,0,1698373572.3252,20
-0.2486,0.3254,0.0065,-0.5725,1.0488,3.248,-0.9517,-0.6508,10.3098,2.1587,-1.8684,0.9605,2.104,-8.4218,6.0629,2.6505,-2.6839,-1.3361,1.5002,-9.4991,-3.6779,-1.4776,0.950467,0,1698373572.3358,21
-0.2439,0.3349,-0.0035,-0.7,1.1046,3.1017,-1.1188,-0.5806,10.2219,2.2008,-1.5964,0.9673,2.0368,-8.0893,5.9551,2.5489,-2.434,-1.3328,1.5304,-9.2527,-3.4296,-1.4788,0.961526,0,1698373572.3455,21
-0.2393,0.3618,-0.0142,-0.8233,1.1864,2.9233,-1.2962,-0.5654,10.0648,2.2496,-1.4056,1.0067,2.0204,-7.6944,5.8831,2.4262,-2.2928,-1.3319,1.5445,-8.9923,-3.1574,-1.4557,0.970116,0,1698373572.3563,22
-0.2338,0.4098,-0.0268,-0.9206,1.2064,2.7727,-1.4758,-0.5784,9.8301,2.2778,-1.3043,1.1063,2.0503,-7.2872,5.8333,2.2859,-2.2785,-1.3389,1.546,-8.7371,-2.8818,-1.4108,0.976788,0,1698373572.3671,22
-0.227,0.4774,-0.0414,-1.0247,1.1316,2.7453,-1.6375,-0.5257,9.7002,2.284,-1.2998,1.2586,2.1034,-6.9062,5.8027,2.1233,-2.3782,-1.3648,1.5463,-8.5236,-2.626,-1.3503,0.98197,0,1698373572.3782,23
-0.2202,0.5213,-0.0571,-1.1443,0.9712,2.7641,-1.7426,-0.4679,9.6254,2.2741,-1.3781,1.4409,2.1591,-6.5464,5.7778,1.9544,-2.5706,-1.4079,1.556,-8.3509,-2.3921,-1.2824,0.985993,0,1698373572.3882,24
-0.2137,0.5549,-0.0728,-1.2221,0.8348,2.7582,-1.7902,-0.468,9.5366,2.3012,-1.4968,1.6233,2.2057,-6.2381,5.731,1.7784,-2.8139,-1.4525,1.5737,-8.2052,-2.1762,-1.2096,0.989098,0,1698373572.3987,24
-0.2071,0.5833,-0.0893,-1.2467,0.9287,2.6176,-1.7365,-0.8164,9.058,2.4936,-1.8758,1.884,2.2465,-5.8159,5.6755,1.4678,-3.371,-1.5309,1.6459,-8.0484,-1.8219,-1.0779,0.991481,0,1698373572.41,25
-0.2005,0.5754,-0.1077,-1.3171,0.9568,2.5814,-1.6286,-1.0431,8.6891,2.532,-2.1348,1.9309,2.2413,-5.7276,5.7526,1.3494,-3.6307,-1.6068,1.6793,-8.0932,-1.7033,-1.0302,0.993331,0,1698373572.4209,26
-0.1939,0.5548,-0.1268,-1.4653,0.9582,2.5225,-1.4894,-1.2584,8.4851,2.571,-2.3905,1.9247,2.2363,-5.7269,5.923,1.2264,-3.8495,-1.7169,1.6908,-8.2167,-1.6126,-1.0081,0.994754,0,1698373572.4324,26
-0.1871,0.5358,-0.1467,-1.6156,0.9448,2.4555,-1.3447,-1.4182,8.6191,2.513,-2.6088,1.8815,2.2342,-5.7918,6.1527,1.125,-4.0134,-1.8442,1.681,-8.4156,-1.5723,-0.9864,0.995776,0,1698373572.443,27
-0.181,0.5155,-0.1664,-1.706,0.7836,2.4001,-1.1828,-1.5816,8.9271,2.3389,-2.7714,1.8352,2.2317,-5.9457,6.3945,1.0555,-4.1109,-1.9541,1.6444,-8.6524,-1.5728,-0.9645,0.996449,0,1698373572.4559,28
-0.1753,0.495,-0.1873,-1.7013,0.5978,2.3195,-0.9983,-1.7761,9.2078,2.2238,-2.8373,1.8018,2.211,-6.1473,6.6307,1.0259,-4.1347,-1.9892,1.6091,-8.8959,-1.6166,-0.9528,0.996725,0,1698373572.4669,28
-0.1701,0.4705,-0.2076,-1.6543,0.485,2.2032,-0.8524,-1.9561,9.4956,2.1559,-2.7879,1.798,2.1583,-6.3814,6.8432,1.0577,-4.1011,-1.8955,1.5996,-9.1372,-1.6938,-0.9571,0.996006,0,1698373572.4774,29
-0.1666,0.417,-0.2245,-1.6295,0.6514,2.0234,-0.7485,-2.1405,9.7982,2.0781,-2.6507,1.87,2.0909,-6.649,7.0027,1.1471,-4.0282,-1.6821,1.6212,-9.3569,-1.8016,-0.9623,0.99285,0,1698373572.487,29
-0.1648,0.3374,-0.2393,-1.5803,0.8838,1.7858,-0.666,-2.3227,9.9352,2.0939,-2.4358,2.0163,2.0284,-6.9092,7.1044,1.2665,-3.9026,-1.3953,1.6747,-9.5351,-1.9434,-0.9404,0.986257,0,1698373572.4982,30
-0.1642,0.2798,-0.2534,-1.4974,0.875,1.5381,-0.6276,-2.4459,9.9325,2.1411,-2.1386,2.17,1.9645,-7.1448,7.1628,1.4015,-3.7044,-1.078,1.7511,-9.6644,-2.0829,-0.8956,0.974842,0,1698373572.5086,31
-0.1638,0.2551,-0.2658,-1.3811,0.7728,1.3126,-0.6378,-2.4327,9.9173,2.1623,-1.7748,2.2672,1.8833,-7.3309,7.2039,1.5232,-3.4286,-0.7684,1.8326,-9.7499,-2.2049,-0.8282,0.96218,0,1698373572.5182,31
-0.1628,0.2476,-0.2761,-1.2428,0.69,1.1041,-0.713,-2.3525,9.9841,2.1788,-1.3559,2.266,1.7657,-7.4526,7.2185,1.6022,-3.0806,-0.4879,1.8985,-9.7981,-2.2956,-0.7641,0.955403,0,1698373572.5296,32
-0.1604,0.2397,-0.2853,-1.1507,0.8503,0.7541,-0.9797,-2.0116,9.5812,2.1694,-0.462,1.9942,1.4082,-7.5579,7.1817,1.6955,-2.2922,-0.0152,1.9388,-9.7577,-2.2921,-0.672,0.768499,0,1698373572.541,33
-0.1569,0.2469,-0.2933,-1.0454,1.0715,0.5979,-1.1456,-1.7814,9.3858,2.2306,-0.0805,1.829,1.216,-7.527,7.1542,1.7689,-1.9397,0.1781,1.9111,-9.6622,-2.2153,-0.635,0.434442,0,1698373572.5523,33
-0.153,0.2553,-0.299,-0.9057,1.3174,0.4314,-1.3017,-1.6686,9.1802,2.3173,0.2235,1.699,1.0437,-7.4258,7.1117,1.8484,-1.6668,0.3367,1.8563,-9.5357,-2.1137,-0.6122,0.216672,0,1698373572.5626,34
-0.1497,0.2493,-0.302,-0.758,1.3985,0.3362,-1.4494,-1.5644,9.1703,2.2789,0.4289,1.6303,0.9023,-7.2608,7.0535,1.9446,-1.4821,0.448,1.7755,-9.3997,-2.0118,-0.5891,0.10554,0,1698373572.5731,35
-0.1469,0.2623,-0.3038,-0.6408,1.4044,0.3167,-1.6085,-1.4102,9.4095,2.0916,0.5152,1.629,0.7958,-7.0581,6.9747,2.0514,-1.3667,0.5046,1.6726,-9.2401,-1.9305,-0.5418,0.018125,0,1698373572.5852,35
-0.1437,0.3043,-0.3071,-0.5766,1.3118,0.3042,-1.795,-1.2795,9.8997,1.8434,0.5123,1.6434,0.7079,-6.8314,6.8777,2.1274,-1.3027,0.5085,1.5518,-9.0603,-1.874,-0.4994,-0.096894,0,1698373572.5959,36
-0.1394,0.3361,-0.3114,-0.5311,1.1061,0.2757,-1.9383,-1.2533,10.2845,1.6574,0.4479,1.6153,0.6227,-6.6439,6.7812,2.1784,-1.2717,0.4673,1.4162,-8.8968,-1.8326,-0.4731,-0.24652,0,1698373572.6063,37
-0.135,0.3413,-0.3155,-0.5035,0.9191,0.286,-1.989,-1.2368,10.3425,1.5274,0.345,1.5313,0.5292,-6.5306,6.6888,2.2103,-1.2604,0.3884,1.2691,-8.776,-1.8092,-0.4581,-0.395747,0,1698373572.6163,37
-0.1315,0.3267,-0.319,-0.4754,0.7337,0.2922,-1.9509,-1.253,10.3387,1.4354,0.2582,1.3978,0.4318,-6.4832,6.5995,2.2075,-1.2712,0.2768,1.1114,-8.7025,-1.8191,-0.4339,-0.516794,0,1698373572.6274,38
-0.1292,0.2966,-0.3227,-0.46,0.479,0.2826,-1.8471,-1.309,10.4087,1.3808,0.2002,1.2192,0.3366,-6.4926,6.5269,2.1644,-1.2984,0.1535,0.9463,-8.6651,-1.8509,-0.4156,-0.585093,0,1698373572.6373,38
-0.1277,0.2713,-0.3272,-0.4655,0.0928,0.2879,-1.7299,-1.3463,10.6483,1.2369,0.1697,1.0114,0.2431,-6.5274,6.4793,2.1131,-1.328,0.0432,0.7806,-8.6714,-1.914,-0.4252,-0.585714,0,1698373572.6474,39
-0.1265,0.2454,-0.3326,-0.4861,-0.4228,0.3227,-1.5911,-1.398,10.8112,1.0695,0.203,0.8305,0.1636,-6.5743,6.4816,2.0671,-1.3212,-0.0263,0.6178,-8.7025,-1.9957,-0.4385,-0.557169,0,1698373572.6574,40
-0.1253,0.2292,-0.3381,-0.482,-0.9076,0.3378,-1.4066,-1.5084,10.749,1.0244,0.2971,0.689,0.124,-6.6074,6.5201,2.0174,-1.2588,-0.0282,0.4717,-8.7509,-2.0366,-0.4571,-0.539062,0,1698373572.6687,40
-0.1239,0.2251,-0.3439,-0.464,-1.5675,0.2229,-1.0306,-1.6669,10.6916,1.0662,0.5554,0.5955,0.0786,-6.5934,6.6981,1.9571,-1.0209,0.1427,0.2829,-8.9482,-2.0247,-0.4788,-0.531805,0,1698373572.6795,41
-0.1222,0.2176,-0.3493,-0.4624,-1.7669,0.1478,-0.8383,-1.7274,10.468,1.0935,0.6398,0.6233,0.0503,-6.5622,6.7852,1.932,-0.8738,0.2812,0.25,-9.0629,-1.9811,-0.4786,-0.529471,0,1698373572.6904,42
-0.1206,0.1912,-0.3533,-0.4214,-1.9082,0.0349,-0.666,-1.7373,10.225,1.1164,0.7208,0.6636,0.0003,-6.5406,6.8593,1.8911,-0.7494,0.4406,0.2508,-9.1549,-1.9283,-0.4524,-0.529874,0,1698373572.7015,42
-0.1193,0.1558,-0.3552,-0.3434,-2.0076,-0.086,-0.5184,-1.7199,10.1803,1.1298,0.8024,0.6975,-0.0659,-6.5374,6.8906,1.8596,-0.6502,0.6037,0.2685,-9.2221,-1.8772,-0.4046,-0.532234,0,1698373572.7129,43
-0.1184,0.1348,-0.3556,-0.2832,-2.0381,-0.185,-0.4115,-1.7154,10.1384,1.151,0.8896,0.7093,-0.1378,-6.5494,6.8915,1.8443,-0.5646,0.7636,0.2941,-9.2489,-1.8404,-0.3717,-0.535226,0,1698373572.7243,44
-0.1181,0.1137,-0.3556,-0.236,-2.0932,-0.279,-0.3472,-1.6363,10.1104,1.1743,0.9778,0.704,-0.2029,-6.5545,6.8895,1.838,-0.4871,0.9091,0.3183,-9.2304,-1.8019,-0.3604,-0.538205,0,1698373572.7348,44
-0.118,0.0783,-0.3555,-0.1916,-2.1463,-0.3647,-0.3101,-1.5166,10.0312,1.2612,1.06,0.6982,-0.2561,-6.5421,6.893,1.8507,-0.4183,1.0383,0.3286,-9.1874,-1.7576,-0.3612,-0.541633,0,1698373572.7454,45
-0.118,0.049,-0.3553,-0.1552,-2.1994,-0.4262,-0.271,-1.518,9.947,1.3709,1.1426,0.6928,-0.3,-6.5146,6.8855,1.867,-0.3769,1.1438,0.3136,-9.1463,-1.7306,-0.3741,-0.545481,0,1698373572.7546,46
-0.118,0.0284,-0.3551,-0.1199,-2.2509,-0.4595,-0.2133,-1.5535,9.8262,1.4154,1.211,0.6878,-0.3383,-6.4916,6.8912,1.8765,-0.3753,1.2274,0.2678,-9.1021,-1.7191,-0.4049,-0.549374,0,1698373572.7644,46
-0.118,0.0305,-0.355,-0.0868,-2.2645,-0.47,-0.1473,-1.4902,9.6399,1.4121,1.2632,0.6873,-0.3775,-6.4775,6.9077,1.8972,-0.4167,1.306,0.2016,-9.0504,-1.6988,-0.4776,-0.55131,0,1698373572.7741,47
-0.118,0.0382,-0.3548,-0.055,-2.2427,-0.479,-0.0729,-1.4392,9.4987,1.418,1.3123,0.6878,-0.4258,-6.4726,6.9061,1.9068,-0.4745,1.3705,0.1229,-9,-1.6684,-0.5479,-0.548388,0,1698373572.784,47
-0.118,0.0283,-0.3547,-0.0365,-2.172,-0.4954,0.0078,-1.4584,9.3655,1.4278,1.3471,0.6856,-0.4888,-6.4863,6.9045,1.9021,-0.5193,1.4061,0.0345,-8.966,-1.6496,-0.5899,-0.538613,0,1698373572.7942,48
-0.118,0.0218,-0.3544,-0.0129,-2.0814,-0.4971,0.0748,-1.4679,9.265,1.415,1.3519,0.6762,-0.5668,-6.5054,6.9004,1.8901,-0.5465,1.409,-0.0623,-8.957,-1.6326,-0.6408,-0.521622,0,1698373572.8041,49
-0.1179,0.0227,-0.3536,0.0193,-2.0067,-0.5026,0.1336,-1.4946,9.1575,1.4005,1.3224,0.6629,-0.6512,-6.5315,6.898,1.8847,-0.5309,1.3763,-0.163,-8.9708,-1.6336,-0.6677,-0.499068,0,1698373572.8141,49
-0.1175,0.0266,-0.3528,0.0302,-1.9751,-0.5095,0.1776,-1.5305,9.1256,1.3732,1.2723,0.6365,-0.739,-6.5678,6.9135,1.8948,-0.4711,1.2998,-0.2609,-9.0075,-1.6608,-0.6394,-0.474278,0,1698373572.824,50
-0.1162,0.0578,-0.3526,0.0204,-1.9599,-0.5054,0.1939,-1.5507,9.1278,1.3366,1.2086,0.5997,-0.8182,-6.5992,6.9263,1.8964,-0.3812,1.1807,-0.3565,-9.0637,-1.6886,-0.6119,-0.449097,0,1698373572.8342,51
-0.1136,0.145,-0.3524,0.031,-1.9388,-0.5108,0.2065,-1.5893,9.1501,1.2846,1.1344,0.5515,-0.8755,-6.6263,6.9334,1.9009,-0.2807,1.0465,-0.4521,-9.1414,-1.7155,-0.6158,-0.423411,0,1698373572.8439,51
-0.1101,0.2406,-0.3519,0.0649,-1.8738,-0.5158,0.2419,-1.6317,9.2599,1.1928,1.0649,0.4707,-0.9114,-6.6569,6.9541,1.9156,-0.1916,0.9243,-0.5484,-9.2188,-1.7389,-0.6283,-0.395294,0,1698373572.8538,52
-0.1063,0.3082,-0.3511,0.0775,-1.7364,-0.4908,0.3094,-1.6105,9.2413,1.1232,1.016,0.3533,-0.9266,-6.6909,6.9814,1.9276,-0.1121,0.8294,-0.6438,-9.2757,-1.7522,-0.6473,-0.358015,0,1698373572.8636,53
-0.1022,0.347,-0.3502,0.081,-1.541,-0.5318,0.3875,-1.6126,9.1824,1.1824,0.9865,0.2162,-0.9222,-6.7149,6.9865,1.9318,-0.0495,0.7719,-0.7331,-9.3162,-1.7639,-0.6658,-0.308362,0,1698373572.8736,53
-0.0977,0.3721,-0.3499,0.0657,-1.385,-0.6122,0.4685,-1.6508,9.2166,1.2741,0.9619,0.079,-0.9051,-6.7121,6.9849,1.9551,0.0042,0.7485,-0.8153,-9.3391,-1.7855,-0.6596,-0.251436,0,1698373572.8835,54
-0.0935,0.3757,-0.3499,0.0519,-1.3031,-0.6824,0.5494,-1.6837,9.3286,1.2882,0.9275,-0.0387,-0.8825,-6.6768,6.9856,1.9847,0.0672,0.7474,-0.8877,-9.3363,-1.8146,-0.6302,-0.194405,0,1698373572.894,54
-0.0896,0.355,-0.3499,0.0531,-1.2266,-0.7761,0.6258,-1.7153,9.409,1.2742,0.8692,-0.1267,-0.8598,-6.6291,6.9831,1.9738,0.1452,0.7414,-0.9473,-9.3288,-1.846,-0.6044,-0.142574,0,1698373572.905,55
-0.0859,0.347,-0.3499,0.0408,-1.1408,-0.9051,0.6877,-1.7645,9.4354,1.257,0.7873,-0.2018,-0.8362,-6.5872,6.9967,1.9377,0.2509,0.7061,-0.9953,-9.3152,-1.8747,-0.586,-0.097558,0,1698373572.915,56
-0.082,0.3797,-0.35,0.0397,-1.0375,-1.0113,0.7154,-1.7931,9.3689,1.1901,0.7006,-0.2798,-0.8187,-6.5632,7.0057,1.9049,0.3892,0.6335,-1.036,-9.2944,-1.8954,-0.5741,-0.058198,0,1698373572.9252,56
-0.0775,0.4139,-0.3501,0.0367,-0.9096,-1.0801,0.7045,-1.7434,9.2169,1.1104,0.6257,-0.3762,-0.8188,-6.5759,6.9939,1.8723,0.5623,0.5209,-1.0813,-9.2853,-1.9112,-0.5862,-0.024424,0,1698373572.9352,57
-0.0721,0.4496,-0.3502,0.0076,-0.719,-1.2179,0.6611,-1.7238,9.0274,1.099,0.5547,-0.5047,-0.8384,-6.6197,6.9709,1.8511,0.7632,0.3729,-1.1343,-9.2766,-1.924,-0.6069,-0.017867,0,1698373572.9447,58
-0.0665,0.5002,-0.3502,-0.0129,-0.4986,-1.3659,0.6043,-1.7281,8.8829,1.0562,0.4697,-0.6565,-0.8682,-6.6769,6.937,1.8481,0.9763,0.2026,-1.1985,-9.2664,-1.9443,-0.6253,-0.03515,0,1698373572.9547,58
-0.0605,0.538,-0.3501,-0.0082,-0.2736,-1.5064,0.533,-1.7619,8.7725,1.0331,0.3688,-0.8205,-0.8964,-6.7406,6.8949,1.8709,1.1947,0.02,-1.2782,-9.2576,-1.9789,-0.6413,-0.02301,0,1698373572.9636,59
-0.0541,0.5564,-0.35,0.0036,-0.0538,-1.6462,0.4512,-1.8394,8.6283,1.0488,0.2656,-0.9955,-0.9149,-6.7885,6.8528,1.9209,1.4103,-0.1892,-1.3734,-9.2484,-2.0164,-0.6288,0.012312,0,1698373572.9733,60
-0.0479,0.5849,-0.3499,0.0116,0.0949,-1.7693,0.3757,-1.932,8.6386,0.9924,0.1549,-1.1911,-0.9156,-6.8356,6.8249,1.9688,1.6298,-0.4402,-1.489,-9.2474,-2.0867,-0.6076,0.036221,0,1698373572.9832,60
-0.0415,0.6101,-0.3496,0.0252,0.1302,-1.8325,0.283,-1.9291,8.7106,0.9087,0.0373,-1.4079,-0.8966,-6.9002,6.8191,2.0066,1.8796,-0.7205,-1.6274,-9.2568,-2.1947,-0.5968,0.050338,0,1698373572.9947,61
-0.0343,0.6061,-0.3479,0.0714,0.121,-1.6685,0.182,-1.8557,8.8116,0.9346,-0.0506,-1.6776,-0.8878,-6.9643,6.8137,2.0343,2.1647,-1.0208,-1.7818,-9.2606,-2.3078,-0.5942,0.056399,0,1698373573.0048,62
-0.0277,0.6024,-0.3446,0.141,0.1002,-1.6043,0.0925,-1.8493,9.199,0.9619,-0.0951,-1.9672,-0.8707,-7.032,6.8023,2.0545,2.4791,-1.3265,-1.9392,-9.2585,-2.4226,-0.6016,0.056767,0,1698373573.0151,62
-0.022,0.5927,-0.3398,0.246,0.0951,-1.7512,0.017,-1.821,9.5449,0.946,-0.1244,-2.2314,-0.8362,-7.1095,6.7742,2.0689,2.8025,-1.6151,-2.0947,-9.2595,-2.5444,-0.6212,0.053258,0,1698373573.0251,63
-0.0165,0.5651,-0.3331,0.3793,0.1688,-1.8687,-0.0485,-1.7212,9.6772,1.0619,-0.1447,-2.4877,-0.8161,-7.1875,6.7452,2.06,3.0998,-1.8648,-2.2368,-9.2921,-2.6441,-0.6661,0.047426,0,1698373573.0349,63
-0.0117,0.5254,-0.3251,0.5034,0.2685,-1.9898,-0.1223,-1.6253,9.9957,1.2797,-0.1392,-2.7285,-0.804,-7.277,6.759,2.0384,3.3358,-2.0656,-2.3531,-9.3744,-2.7046,-0.7272,0.041189,0,1698373573.0451,64
-0.0078,0.4894,-0.3166,0.5796,0.3657,-2.037,-0.2078,-1.4942,10.2302,1.6006,-0.1383,-2.959,-0.7912,-7.3909,6.8237,2.0238,3.4833,-2.2088,-2.4409,-9.508,-2.7576,-0.7939,0.035931,0,1698373573.0547,65
-0.0046,0.4461,-0.3088,0.6048,0.4462,-1.9945,-0.333,-1.21,10.3937,2.0838,-0.1324,-3.1585,-0.7675,-7.5018,6.8999,1.9923,3.5331,-2.2416,-2.487,-9.6591,-2.803,-0.8794,0.031286,0,1698373573.0637,65
-0.0023,0.3888,-0.3026,0.6181,0.5377,-1.9605,-0.4891,-0.9615,10.6871,2.6034,-0.116,-3.2982,-0.7449,-7.5914,6.9567,1.9489,3.4763,-2.1273,-2.4801,-9.8048,-2.8243,-0.9648,0.027433,0,1698373573.074,66
-0.0011,0.3265,-0.2975,0.6047,0.625,-1.8984,-0.6733,-0.7359,10.867,2.9336,-0.1305,-3.3444,-0.7385,-7.6591,6.9834,1.9014,3.5447,-1.8757,-2.4126,-9.9442,-2.8257,-1.023,0.034682,0,1698373573.084,67
-0.0008,0.2646,-0.294,0.525,0.865,-1.7487,-0.8778,-0.4331,10.9471,3.0924,-0.1818,-3.2721,-0.7633,-7.711,6.9819,1.8411,3.4947,-1.5278,-2.2672,-10.0658,-2.8019,-1.0878,0.10039,0,1698373573.0947,67
-0.0008,0.207,-0.2934,0.3934,1.0147,-1.5591,-1.0537,-0.2169,10.9179,3.1984,-0.2753,-3.1111,-0.8209,-7.7477,6.96,1.7751,3.1295,-1.134,-2.0529,-10.1653,-2.7738,-1.1678,0.239468,0,1698373573.1049,68
-0.0009,0.1608,-0.2939,0.2836,0.9844,-1.3719,-1.1656,-0.1469,10.6824,3.2316,-0.3804,-2.9145,-0.8997,-7.7824,6.9234,1.7086,2.7666,-0.7165,-1.7936,-10.2205,-2.7672,-1.2388,0.393639,0,1698373573.1149,69
-0.001,0.1225,-0.2938,0.2276,1.0623,-1.1872,-1.215,-0.1945,10.2841,3.1576,-0.4483,-2.7217,-0.9865,-7.826,6.8699,1.6457,2.4268,-0.3104,-1.5274,-10.2558,-2.7997,-1.2976,0.523935,0,1698373573.125,69
-0.0016,0.0778,-0.2928,0.1948,1.1288,-1.008,-1.1664,-0.3221,10.0838,3.0176,-0.4534,-2.5481,-1.0727,-7.8702,6.7749,1.5819,2.1074,0.034,-1.2959,-10.2718,-2.8689,-1.3412,0.628046,0,1698373573.1347,70
-0.0031,0.0091,-0.2905,0.2167,1.2443,-0.9787,-0.9847,-0.7722,10.0466,2.9212,-0.4104,-2.392,-1.1592,-7.9158,6.6524,1.5334,1.8577,0.3109,-1.1084,-10.1986,-2.9632,-1.3638,0.708175,0,1698373573.145,71
-0.0052,-0.0616,-0.2858,0.3105,1.4397,-1.013,-0.7106,-1.3698,9.8876,2.8078,-0.3353,-2.2528,-1.2409,-7.9523,6.5071,1.5134,1.7284,0.5242,-0.9577,-10.0149,-3.0648,-1.3803,0.764828,0,1698373573.1548,71
-0.0082,-0.122,-0.2778,0.4776,1.6145,-1.015,-0.3597,-1.7605,9.5099,2.7221,-0.2045,-2.143,-1.3248,-7.9779,6.3284,1.5032,1.7278,0.6865,-0.8406,-9.7588,-3.1445,-1.4043,0.801304,0,1698373573.1649,72
-0.0126,-0.2029,-0.2676,0.6338,1.7273,-1.0907,0.0296,-1.976,9.3501,2.6392,-0.0101,-2.0867,-1.4232,-7.9762,6.1169,1.4947,1.8414,0.8152,-0.754,-9.4792,-3.2176,-1.4123,0.820993,0,1698373573.1751,72
-0.0186,-0.3028,-0.2568,0.7313,1.8114,-1.2304,0.3985,-2.1178,9.399,2.5682,0.2108,-2.0949,-1.5261,-7.938,5.9083,1.5052,2.0388,0.9185,-0.6909,-9.2048,-3.2867,-1.4054,0.8259,0,1698373573.1848,73
-0.0253,-0.3952,-0.247,0.8149,1.8802,-1.4156,0.7123,-2.1084,9.4022,2.5245,0.4353,-2.1567,-1.617,-7.8474,5.7187,1.5043,2.2765,0.9953,-0.6496,-8.9482,-3.3289,-1.3961,0.818411,0,1698373573.1951,74
-0.0332,-0.4846,-0.2379,0.8304,1.926,-1.5928,1.0089,-2.0113,9.3822,2.5109,0.6479,-2.2456,-1.6817,-7.6992,5.5525,1.5095,2.5207,1.0235,-0.6252,-8.7146,-3.3256,-1.3725,0.804528,0,1698373573.2053,74
-0.0426,-0.5705,-0.2297,0.7933,1.8772,-1.7133,1.2673,-1.8217,9.3303,2.562,0.8225,-2.3334,-1.7098,-7.529,5.4138,1.5282,2.7658,1.0002,-0.6105,-8.5112,-3.2896,-1.3309,0.800462,0,1698373573.2144,75
-0.0528,-0.6612,-0.2232,0.7517,1.7088,-1.8222,1.4698,-1.4492,9.4387,2.5986,0.947,-2.4076,-1.695,-7.3394,5.2932,1.551,3.0022,0.9395,-0.605,-8.3522,-3.2507,-1.2839,0.81768,0,1698373573.2243,76
-0.0645,-0.794,-0.2171,0.7106,1.5449,-1.9307,1.6382,-1.0599,9.4445,2.7103,1.0395,-2.4524,-1.634,-7.1392,5.1859,1.5958,3.2148,0.8778,-0.6059,-8.2028,-3.1972,-1.2506,0.849052,0,1698373573.2345,76
-0.0781,-0.9436,-0.2115,0.6562,1.3119,-1.9928,1.7374,-0.6327,9.399,2.7907,1.1454,-2.46,-1.5475,-6.9594,5.0761,1.6294,3.3689,0.8419,-0.604,-8.0656,-3.1479,-1.2422,0.880992,0,1698373573.2443,77
-0.0928,-1.0289,-0.2065,0.5991,1.0312,-2.0283,1.7787,-0.1857,9.4607,2.8395,1.2651,-2.4351,-1.4607,-6.8125,4.9783,1.6625,3.405,0.8191,-0.594,-7.9828,-3.1013,-1.257,0.907269,0,1698373573.2542,78
-0.108,-1.1068,-0.2012,0.5598,0.8114,-1.8658,1.7664,0.1487,9.5001,2.9293,1.3803,-2.3835,-1.3805,-6.7102,4.9105,1.6936,3.3027,0.7963,-0.5735,-7.9487,-3.0459,-1.292,0.927893,0,1698373573.2639,78
-0.1232,-1.1863,-0.1959,0.5193,0.6177,-1.7362,1.6887,0.37,9.6077,2.9295,1.4876,-2.3059,-1.3071,-6.6726,4.8761,1.7105,3.0886,0.7649,-0.5473,-7.9549,-3.031,-1.3635,0.943984,0,1698373573.2754,79
-0.1397,-1.2574,-0.1912,0.4872,0.4792,-1.8375,1.5508,0.5116,9.7156,2.86,1.5719,-2.2012,-1.2365,-6.7095,4.8724,1.7442,2.8354,0.7354,-0.5202,-7.984,-3.0701,-1.4472,0.956487,0,1698373573.2848,79
-0.1557,-1.3049,-0.1868,0.4811,0.404,-1.9161,1.4011,0.6032,9.6975,2.7995,1.6254,-2.0791,-1.1697,-6.8047,4.8876,1.8126,2.5944,0.7253,-0.4957,-8.0405,-3.1398,-1.5071,0.966196,0,1698373573.2952,80
-0.1705,-1.352,-0.182,0.4974,0.3422,-1.9551,1.2524,0.6658,9.656,2.7769,1.6712,-1.9484,-1.1135,-6.935,4.9134,1.9098,2.3586,0.7439,-0.4758,-8.132,-3.2279,-1.5279,0.973736,0,1698373573.3051,81
-0.1851,-1.4137,-0.177,0.5186,0.3521,-1.9666,1.1029,0.6144,9.4711,2.8109,1.74,-1.8248,-1.0742,-7.0969,4.95,2.0014,2.1082,0.7958,-0.4595,-8.2421,-3.3428,-1.5134,0.979591,0,1698373573.315,81
-0.1983,-1.3769,-0.1724,0.5323,0.4101,-1.973,0.9722,0.5272,9.2879,2.8408,1.8437,-1.7202,-1.0556,-7.2788,5.0024,2.076,1.8386,0.8813,-0.4511,-8.358,-3.4732,-1.501,0.984138,0,1698373573.325,82
-0.2105,-1.2853,-0.1679,0.531,0.4492,-1.9668,0.8835,0.4672,9.2475,2.8121,1.9644,-1.6313,-1.0547,-7.4623,5.0761,2.1468,1.5722,0.9971,-0.4497,-8.4625,-3.5906,-1.5184,0.987651,0,1698373573.3349,83
-0.2216,-1.2313,-0.1628,0.5172,0.5571,-1.9672,0.8513,0.4228,9.2105,2.7792,2.0887,-1.5563,-1.0652,-7.6409,5.1597,2.2124,1.326,1.1391,-0.4452,-8.5592,-3.6967,-1.5696,0.990313,0,1698373573.3448,83
-0.2315,-1.1887,-0.1575,0.5083,0.6801,-1.9376,0.8773,0.3821,9.2408,2.7581,2.2117,-1.4989,-1.0826,-7.7992,5.2394,2.2776,1.1101,1.2987,-0.4315,-8.6562,-3.8047,-1.6238,0.992261,0,1698373573.3549,84
-0.2402,-1.12,-0.1529,0.4758,0.8004,-1.8883,0.9538,0.315,9.2788,2.7303,2.3405,-1.456,-1.1064,-7.9205,5.3042,2.3499,0.9441,1.4662,-0.4132,-8.7361,-3.902,-1.6531,0.993616,0,1698373573.3648,85
-0.2478,-1.0668,-0.1487,0.4313,0.8546,-1.8192,1.061,0.3262,9.3617,2.6496,2.484,-1.4218,-1.1351,-8.0168,5.3553,2.4293,0.8365,1.6279,-0.3972,-8.7961,-3.9768,-1.6317,0.994471,0,1698373573.3749,85
-0.2545,-0.9892,-0.1442,0.4124,0.8353,-1.7486,1.1809,0.3725,9.613,2.5843,2.6253,-1.391,-1.1719,-8.0861,5.3956,2.4936,0.7785,1.7628,-0.3865,-8.8477,-4.0004,-1.5526,0.994703,0,1698373573.3848,86
-0.2604,-0.8988,-0.1396,0.4033,0.9065,-1.6818,1.3072,0.3519,9.7678,2.5445,2.7427,-1.3543,-1.2116,-8.1038,5.4167,2.5353,0.7436,1.8607,-0.3817,-8.8974,-3.965,-1.439,0.994667,0,1698373573.3947,87
-0.266,-0.819,-0.136,0.3707,0.885,-1.5822,1.4079,0.3436,9.9078,2.4123,2.8177,-1.2986,-1.2398,-8.0595,5.4366,2.5797,0.7336,1.9053,-0.3855,-8.9368,-3.9237,-1.3158,0.994073,0,1698373573.4052,87
-0.2712,-0.7146,-0.1331,0.322,0.8087,-1.5576,1.4656,0.3519,10.0828,2.3058,2.8496,-1.2305,-1.2532,-7.9688,5.4657,2.6299,0.7642,1.8999,-0.3937,-8.9364,-3.8899,-1.215,0.991745,0,1698373573.4147,88
-0.2757,-0.6229,-0.1305,0.3042,0.8321,-1.5905,1.5164,0.226,9.9515,2.2769,2.8504,-1.164,-1.2551,-7.8595,5.4861,2.6727,0.8109,1.8718,-0.394,-8.903,-3.8434,-1.1733,0.989532,0,1698373573.4237,88
-0.2803,-0.5801,-0.1278,0.3202,0.8093,-1.5905,1.5627,0.1013,9.7183,2.2277,2.8162,-1.1013,-1.2413,-7.7388,5.5049,2.6715,0.8617,1.8457,-0.3832,-8.8551,-3.795,-1.2128,0.989094,0,1698373573.434,89
-0.2858,-0.5671,-0.1245,0.3372,0.7175,-1.6187,1.5774,0.0688,9.6165,2.1988,2.741,-1.039,-1.2109,-7.6055,5.5308,2.64,0.9369,1.8365,-0.3578,-8.7882,-3.7448,-1.2898,0.989645,0,1698373573.4439,90
-0.2918,-0.5637,-0.1212,0.3296,0.607,-1.6934,1.5487,-0.0043,9.6011,2.1588,2.6391,-0.9761,-1.1745,-7.4787,5.5268,2.6167,1.0389,1.8354,-0.3192,-8.7053,-3.6863,-1.3567,0.990546,0,1698373573.4541,90
-0.2979,-0.588,-0.1183,0.313,0.3891,-1.7139,1.4924,-0.0782,9.7671,1.9665,2.514,-0.8982,-1.1429,-7.3728,5.4948,2.5892,1.1649,1.8012,-0.2697,-8.6203,-3.6411,-1.4106,0.991062,0,1698373573.4642,91
-0.3043,-0.6162,-0.1154,0.3175,0.0519,-1.6753,1.4205,-0.1254,10.0283,1.7054,2.3699,-0.7858,-1.1012,-7.2953,5.4834,2.5758,1.3369,1.6895,-0.2202,-8.5484,-3.6154,-1.456,0.990805,0,1698373573.4745,92
-0.3107,-0.6026,-0.1121,0.331,-0.2807,-1.6154,1.3305,-0.1014,10.2104,1.4513,2.2324,-0.649,-1.045,-7.2453,5.4488,2.5738,1.5549,1.5252,-0.1766,-8.4925,-3.5914,-1.4669,0.990714,0,1698373573.4838,92
-0.3165,-0.5821,-0.1078,0.3652,-0.4938,-1.5451,1.2309,0.045,10.1877,1.336,2.1172,-0.5138,-0.9963,-7.2142,5.3891,2.5911,1.7608,1.3745,-0.1274,-8.4392,-3.5709,-1.4644,0.991468,0,1698373573.4944,93
-0.3223,-0.5908,-0.1026,0.411,-0.5802,-1.5374,1.1296,0.256,10.0928,1.4399,2.031,-0.3926,-0.961,-7.2036,5.3371,2.6247,1.8816,1.2575,-0.079,-8.3874,-3.5614,-1.4338,0.992483,0,1698373573.5039,94
-0.3276,-0.6048,-0.0975,0.4313,-0.6856,-1.5382,1.0126,0.4321,10.1194,1.5565,1.9701,-0.2874,-0.9361,-7.2182,5.2983,2.659,1.8928,1.1615,-0.0414,-8.3429,-3.5749,-1.3564,0.993227,0,1698373573.5142,94
-0.3315,-0.5513,-0.0929,0.4547,-0.7981,-1.4834,0.8842,0.5714,10.0654,1.6521,1.9048,-0.198,-0.921,-7.257,5.2893,2.6988,1.8102,1.0878,-0.0207,-8.3241,-3.5941,-1.2911,0.992931,0,1698373573.5238,95
-0.3341,-0.4483,-0.088,0.4813,-0.8233,-1.3821,0.7725,0.7333,9.8653,1.7413,1.8115,-0.1064,-0.9068,-7.2989,5.2861,2.7409,1.6532,1.051,-0.0088,-8.3475,-3.596,-1.2771,0.991289,0,1698373573.5337,96
-0.3357,-0.3626,-0.083,0.4875,-0.802,-1.2369,0.6747,0.9547,9.7101,1.794,1.699,-0.0105,-0.888,-7.3282,5.303,2.7819,1.4376,1.0608,0.002,-8.4014,-3.5881,-1.2937,0.989151,0,1698373573.543,96
-0.3372,-0.305,-0.0782,0.4753,-0.8187,-1.0721,0.5936,1.1759,9.7334,1.8163,1.5708,0.0716,-0.8717,-7.343,5.3421,2.7921,1.1882,1.1033,0.0105,-8.4674,-3.5991,-1.2981,0.98692,0,1698373573.5531,97
-0.3385,-0.2593,-0.0736,0.4767,-0.9109,-0.8751,0.5145,1.3068,9.791,1.8509,1.443,0.1337,-0.8489,-7.3304,5.3864,2.7671,0.917,1.1746,0.0188,-8.5333,-3.618,-1.2723,0.983046,0,1698373573.5635,97
-0.3393,-0.2081,-0.069,0.4914,-1.0004,-0.6454,0.4351,1.3884,9.7836,1.8827,1.3301,0.1862,-0.8132,-7.3148,5.4056,2.7651,0.6229,1.288,0.0312,-8.5615,-3.6076,-1.2526,0.976764,0,1698373573.5735,98
-0.3396,-0.1692,-0.0642,0.4892,-1.0094,-0.4329,0.3726,1.3842,9.783,1.8576,1.2058,0.2465,-0.7702,-7.3032,5.3959,2.7862,0.3151,1.4213,0.0638,-8.5388,-3.576,-1.2813,0.970182,0,1698373573.5833,99
-0.3396,-0.126,-0.0599,0.483,-1.03,-0.2431,0.3078,1.3336,9.7721,1.8047,1.0564,0.3258,-0.7223,-7.2565,5.3817,2.7572,0.0326,1.5179,0.119,-8.5142,-3.5573,-1.3114,0.959031,0,1698373573.5931,99
-0.3396,-0.092,-0.0565,0.449,-1.0733,-0.0412,0.2362,1.3558,9.6952,1.7842,0.8892,0.4198,-0.674,-7.1745,5.3626,2.6626,-0.2055,1.5496,0.1814,-8.4994,-3.5648,-1.3065,0.920724,0,1698373573.6028,0
-0.3396,-0.0778,-0.0531,0.4093,-1.0695,0.0978,0.1908,1.2444,9.4644,1.833,0.7057,0.5098,-0.6263,-7.1073,5.324,2.5436,-0.4025,1.5273,0.2342,-8.4753,-3.5895,-1.2535,0.83486,0,1698373573.6134,1
-0.3396,-0.0621,-0.0488,0.4174,-1.0699,0.2304,0.1692,1.0198,9.217,1.7845,0.5171,0.578,-0.5747,-7.0808,5.2796,2.4477,-0.5563,1.4682,0.2905,-8.45,-3.6213,-1.1869,0.704418,0,1698373573.6232,1
-0.3395,-0.0398,-0.044,0.4219,-1.0378,0.4084,0.1286,0.8974,9.0764,1.636,0.3502,0.6165,-0.5168,-7.0853,5.2371,2.393,-0.6809,1.3729,0.3615,-8.453,-3.6606,-1.1509,0.564415,0,1698373573.6337,2
-0.3391,-0.0133,-0.0392,0.4177,-1.0581,0.5646,0.0748,0.824,9.1463,1.4706,0.2069,0.6311,-0.4479,-7.1223,5.1789,2.3801,-0.7555,1.24,0.4337,-8.4916,-3.7367,-1.1404,0.441578,0,1698373573.6438,3
-0.3379,0.0255,-0.0342,0.443,-1.0968,0.6995,0.0161,0.772,9.278,1.3408,0.0658,0.6288,-0.3535,-7.1846,5.1164,2.4367,-0.7461,1.0874,0.5052,-8.5137,-3.8302,-1.164,0.340656,0,1698373573.6546,4
-0.3365,0.0625,-0.0285,0.4728,-1.0204,0.795,-0.0475,0.7087,9.2869,1.2536,-0.0609,0.598,-0.2367,-7.2702,5.0515,2.5381,-0.6689,0.9229,0.57,-8.5137,-3.8999,-1.2115,0.282377,0,1698373573.6638,4
-0.3345,0.0959,-0.0227,0.4848,-0.8878,0.8674,-0.1292,0.6617,9.236,1.1801,-0.1473,0.5255,-0.1119,-7.3779,4.9862,2.6169,-0.569,0.7414,0.611,-8.5137,-3.9436,-1.2412,0.275241,0,1698373573.6741,5
-0.331,0.1514,-0.017,0.5029,-0.6756,0.9407,-0.2174,0.7173,9.0772,1.2295,-0.1991,0.4223,0.0114,-7.4858,4.9343,2.6466,-0.4939,0.5706,0.6258,-8.4878,-3.9811,-1.2647,0.333171,0,1698373573.6844,6
-0.3261,0.2082,-0.0112,0.5622,-0.4112,0.9934,-0.2774,0.7697,8.9537,1.3567,-0.1925,0.3064,0.1294,-7.5606,4.9162,2.6188,-0.4423,0.4626,0.6177,-8.4847,-4.0083,-1.2627,0.441668,0,1698373573.6939,7
-0.3212,0.2663,-0.0049,0.6034,-0.1248,1.0539,-0.3087,0.7619,8.7708,1.4654,-0.1013,0.1823,0.2449,-7.6173,4.9287,2.62,-0.4432,0.4026,0.5833,-8.5008,-4.0053,-1.2189,0.549409,0,1698373573.7039,7
-0.3169,0.3114,0.0013,0.6169,0.1189,1.1358,-0.344,0.7949,8.6703,1.5062,-0.004,0.0697,0.3542,-7.6926,4.9233,2.7246,-0.4976,0.3688,0.5515,-8.4692,-3.9804,-1.2034,0.630443,0,1698373573.7137,8
-0.3131,0.3265,0.0073,0.6516,0.3381,1.2012,-0.3689,0.8754,8.6688,1.5358,0.0451,-0.0135,0.4476,-7.7188,4.8976,2.8,-0.5006,0.3426,0.548,-8.4155,-3.974,-1.2014,0.6757,0,1698373573.7231,9
-0.3097,0.3178,0.0136,0.6883,0.5926,1.2622,-0.367,0.9133,8.5432,1.5946,0.1046,-0.1029,0.5219,-7.6798,4.9072,2.8192,-0.4348,0.294,0.559,-8.4105,-4.01,-1.1542,0.676802,0,1698373573.7332,10
-0.3073,0.2758,0.0196,0.6864,0.7512,1.3547,-0.3723,0.951,8.5894,1.5585,0.1244,-0.2157,0.583,-7.6695,4.9219,2.9087,-0.3641,0.2206,0.5684,-8.4103,-4.0409,-1.1245,0.627377,0,1698373573.7434,10
-0.3062,0.221,0.0251,0.6628,0.7652,1.4538,-0.3866,0.9877,8.8375,1.4484,0.0698,-0.3204,0.6458,-7.6412,4.9381,2.9874,-0.2913,0.1158,0.5688,-8.3799,-4.0548,-1.1191,0.55747,0,1698373573.7536,11
-0.306,0.1923,0.0304,0.6439,0.7446,1.5436,-0.4131,1.0265,9.0323,1.3481,0.0215,-0.429,0.7261,-7.5647,4.9841,3.0228,-0.2228,-0.0142,0.5513,-8.3766,-4.057,-1.0646,0.508147,0,1698373573.7634,12
-0.3061,0.1629,0.0351,0.5931,0.7406,1.621,-0.4533,1.0819,9.2347,1.2425,-0.0578,-0.5492,0.8217,-7.5259,5.0153,3.116,-0.196,-0.1731,0.5147,-8.3776,-4.0461,-1.0386,0.511841,0,1698373573.7736,13
-0.3062,0.1088,0.0385,0.5185,0.7246,1.7084,-0.4947,1.0849,9.4919,1.13,-0.2156,-0.6459,0.9215,-7.4928,5.039,3.1943,-0.188,-0.3749,0.4734,-8.3775,-4.0235,-1.0718,0.57027,0,1698373573.7843,13
-0.3065,0.0615,0.0413,0.4659,0.662,1.8317,-0.532,1.2463,9.6435,1.0156,-0.4286,-0.7321,1.0255,-7.4174,5.1106,3.2111,-0.1741,-0.6092,0.4286,-8.4344,-4.0025,-1.0581,0.646663,0,1698373573.794,14
-0.3068,0.0372,0.0444,0.4366,0.6244,1.9402,-0.4885,1.3468,9.5218,0.9684,-0.6937,-0.8383,1.1352,-7.3949,5.2074,3.224,-0.2221,-0.8773,0.37,-8.567,-3.9837,-1.006,0.715476,0,1698373573.8042,15
-0.3069,0.0282,0.048,0.4258,0.6949,2.0305,-0.3746,1.3459,9.369,1.009,-1.0172,-0.9488,1.2485,-7.4613,5.3184,3.2659,-0.411,-1.1989,0.2843,-8.7705,-3.9609,-0.9869,0.771549,0,1698373573.8141,16
-0.3068,0.0261,0.0519,0.4323,0.8596,2.1066,-0.2981,1.4052,9.4928,1.1517,-1.4006,-1.0543,1.3724,-7.5619,5.4784,3.2907,-0.7768,-1.5645,0.1607,-9.0433,-3.9686,-1.0159,0.815947,0,1698373573.8244,16
-0.3063,0.0478,0.0548,0.3927,0.944,2.1947,-0.2344,1.3675,9.7749,1.4187,-1.7444,-1.1721,1.5146,-7.6961,5.7167,3.2306,-1.3149,-1.9141,0,-9.3954,-4.0149,-1.0583,0.8453,0,1698373573.8347,17
-0.3049,0.078,0.0563,0.3138,0.8733,2.2571,-0.1441,1.2552,10.3284,1.7129,-1.9816,-1.307,1.6651,-7.92,6.0313,3.1444,-1.9024,-2.0997,-0.2945,-9.7935,-4.0719,-1.0869,0.871204,0,1698373573.8441,18
-0.302,0.1276,0.0568,0.2476,0.8166,2.234,-0.0108,0.9594,11.0569,1.9756,-2.142,-1.3964,1.7922,-8.2079,6.3472,3.0554,-2.4474,-2.1125,-0.5377,-10.1816,-4.1278,-1.1609,0.899555,0,1698373573.8544,19
-0.2981,0.2024,0.0568,0.1827,0.7965,2.1854,0.2086,0.4665,11.4885,2.1933,-2.1788,-1.3636,1.8654,-8.49,6.6134,2.9433,-2.8426,-2.0407,-0.5792,-10.511,-4.1906,-1.2567,0.921919,0,1698373573.864,19
-0.2938,0.2541,0.0566,0.1287,0.8064,2.0769,0.4736,-0.0391,11.5832,2.4095,-2.0071,-1.1933,1.8506,-8.7529,6.7761,2.8277,-2.9569,-1.7914,-0.4997,-10.6886,-4.2753,-1.3249,0.931617,0,1698373573.8742,20
-0.2895,0.2662,0.0563,0.0851,0.9283,1.8853,0.7153,-0.4546,11.574,2.5728,-1.8286,-0.9263,1.6969,-8.997,6.8113,2.7643,-2.8131,-1.3797,-0.2676,-10.7061,-4.375,-1.4067,0.867464,0,1698373573.8842,21
-0.2858,0.2544,0.056,0.0401,1.144,1.6691,0.9174,-0.7837,11.4978,2.6059,-1.4778,-0.6346,1.4053,-9.2339,6.7783,2.7763,-2.4594,-0.9636,0.0524,-10.6554,-4.4455,-1.501,0.777237,0,1698373573.8945,22
-0.2836,0.2282,0.0548,-0.0068,1.5953,1.26,1.0387,-1.0465,11.7474,2.4241,-0.8576,-0.3816,1.0373,-9.4024,6.728,2.7957,-1.9443,-0.5986,0.3914,-10.5608,-4.4283,-1.597,0.774406,0,1698373573.9044,22
-0.2825,0.1868,0.0527,-0.0587,2.0762,0.9815,1.1294,-1.3089,11.5379,2.2766,-0.3324,-0.2047,0.6655,-9.4375,6.693,2.8095,-1.3925,-0.2828,0.6947,-10.3961,-4.3068,-1.6887,0.814696,0,1698373573.914,23
-0.2816,0.1646,0.0494,-0.1468,2.1762,1.0583,1.0602,-1.115,10.8288,2.2202,0.0287,-0.0929,0.363,-9.2994,6.6741,2.8491,-0.9367,0.0009,0.92,-10.1798,-4.0768,-1.7802,0.842075,0,1698373573.9236,24
-0.2796,0.1941,0.045,-0.2869,2.0655,1.1222,0.7234,-0.39,10.7368,2.2128,0.189,0,0.1835,-8.9652,6.6669,2.8902,-0.5929,0.2366,1.0542,-9.9406,-3.7437,-1.8202,0.801188,0,1698373573.9334,25
-0.2748,0.285,0.0383,-0.4434,1.914,1.1403,0.2872,0.0988,10.6324,2.4243,0.1907,0.1173,0.1199,-8.4611,6.6362,2.873,-0.3369,0.3864,1.103,-9.6774,-3.3557,-1.7795,0.753357,0,1698373573.9439,25
-0.2659,0.4077,0.0281,-0.6162,1.7519,1.128,-0.1701,0.2544,10.2666,2.6827,0.1163,0.2893,0.1361,-7.8659,6.5388,2.7926,-0.202,0.4696,1.0846,-9.3438,-2.9385,-1.7149,0.771042,0,1698373573.9543,26
-0.2541,0.5412,0.0154,-0.759,1.5988,1.1312,-0.6326,0.3401,10.1125,2.7864,0.0346,0.5235,0.2075,-7.2367,6.3739,2.6355,-0.2173,0.5325,1.0269,-8.9248,-2.5153,-1.6629,0.795363,0,1698373573.9642,27
-0.2418,0.7019,0.0016,-0.8852,1.1995,1.2206,-1.0524,0.3414,9.8954,2.7776,-0.0075,0.7838,0.2927,-6.607,6.1648,2.4036,-0.4116,0.6009,0.9565,-8.4877,-2.119,-1.6391,0.730392,0,1698373573.9744,28
-0.2303,0.8141,-0.0134,-1.0165,0.7769,1.342,-1.3436,0.1997,9.4318,2.8275,-0.0369,1.0456,0.3752,-6.0309,5.9506,2.1412,-0.7969,0.6796,0.895,-8.1014,-1.7561,-1.6684,0.471935,0,1698373573.9845,28
-0.2203,0.8162,-0.0294,-1.1304,0.5696,1.4099,-1.487,-0.0592,9.2146,2.8539,-0.1031,1.2908,0.4494,-5.5485,5.7796,1.8497,-1.3424,0.745,0.8533,-7.8049,-1.4192,-1.7548,0.145824,0,1698373573.9939,29
-0.2125,0.7837,-0.0465,-1.2528,0.4197,1.3731,-1.5175,-0.3991,9.1125,2.8397,-0.2602,1.4982,0.5199,-5.1954,5.6862,1.5636,-1.9954,0.7047,0.8148,-7.6844,-1.1516,-1.8615,0.089864,0,1698373574.004,30
-0.2063,0.7415,-0.0645,-1.3664,0.2879,1.2815,-1.4773,-0.7644,8.8282,2.8485,-0.551,1.6832,0.6138,-4.9859,5.6649,1.3126,-2.6474,0.4654,0.7594,-7.7132,-0.9804,-1.9582,0.215539,0,1698373574.0144,31
-0.2013,0.6827,-0.0837,-1.4546,0.085,1.1831,-1.3898,-1.0788,8.6213,2.8443,-0.9447,1.8209,0.7319,-4.9431,5.706,1.0853,-3.13,0.0153,0.6746,-7.7925,-0.9035,-1.9925,0.208715,0,1698373574.0241,31
-0.1969,0.6475,-0.104,-1.5316,-0.1493,1.0879,-1.24,-1.3711,8.5746,2.8103,-1.3383,1.8461,0.8484,-5.0561,5.7763,0.8999,-3.3165,-0.5669,0.7732,-7.903,-0.9254,-1.9485,0.114001,0,1698373574.0351,32
-0.1925,0.6198,-0.1264,-1.6781,-0.3458,1.0293,-1.0163,-1.6268,8.5336,2.8091,-1.6407,1.7566,0.9312,-5.2724,5.8391,0.7685,-3.2236,-1.1495,0.8063,-8.0377,-1.0201,-1.8551,0.050157,0,1698373574.0447,33
-0.1886,0.5588,-0.1491,-1.7912,-0.5598,0.9906,-0.7616,-1.7629,8.5943,2.8145,-1.7988,1.6078,0.9588,-5.5807,5.9226,0.6971,-2.9794,-1.6259,0.6011,-8.2285,-1.1885,-1.7736,0.049021,0,1698373574.0554,34
-0.1857,0.4878,-0.1699,-1.8594,-0.8189,0.9529,-0.4981,-1.9137,8.8763,2.7551,-1.7835,1.4931,0.9471,-5.9595,6.0856,0.7021,-2.7087,-1.9277,0.4673,-8.4963,-1.433,-1.7411,0.08419,0,1698373574.0655,34
-0.1839,0.4093,-0.1894,-1.9046,-0.992,0.9159,-0.2483,-2.1589,9.1942,2.6921,-1.568,1.5079,0.932,-6.3697,6.3178,0.7482,-2.4643,-2.019,0.4298,-8.814,-1.7025,-1.7488,0.122953,0,1698373574.0747,35
-0.183,0.3229,-0.2071,-1.8713,-1.1239,0.8719,-0.0747,-2.2879,9.4778,2.5922,-1.197,1.6839,0.9433,-6.7802,6.5871,0.8321,-2.249,-1.9007,0.4885,-9.158,-1.9514,-1.7974,0.139367,0,1698373574.0847,36
-0.182,0.267,-0.223,-1.832,-1.1905,0.772,-0.0132,-2.3284,9.7595,2.4833,-0.769,1.9834,0.9981,-7.1453,6.8668,0.9783,-2.0408,-1.6026,0.6201,-9.495,-2.1549,-1.8553,0.105621,0,1698373574.0951,37
-0.1802,0.247,-0.2371,-1.7448,-1.054,0.6101,-0.06,-2.4009,9.9206,2.4457,-0.3147,2.314,1.09,-7.4351,7.0579,1.1375,-1.8297,-1.1666,0.7991,-9.7936,-2.2776,-1.9056,0.00773,0,1698373574.1047,37
-0.1777,0.2523,-0.2496,-1.6218,-0.734,0.4503,-0.1909,-2.3841,9.7405,2.4189,0.1353,2.5367,1.1299,-7.6142,7.139,1.2871,-1.6427,-0.6694,0.9943,-10.0223,-2.2973,-1.8981,-0.121145,0,1698373574.1148,38
-0.1748,0.2595,-0.26,-1.4932,-0.4139,0.3355,-0.3915,-2.1926,9.4122,2.4227,0.5027,2.581,1.0698,-7.6712,7.1427,1.4143,-1.5093,-0.2005,1.1869,-10.1311,-2.2359,-1.8181,-0.232356,0,1698373574.1247,39
-0.172,0.2474,-0.268,-1.3491,-0.1934,0.2523,-0.658,-1.8779,9.2561,2.4655,0.7515,2.5149,0.9736,-7.6252,7.1001,1.504,-1.4467,0.1764,1.3603,-10.1008,-2.1335,-1.7254,-0.312165,0,1698373574.1342,40
-0.1693,0.2422,-0.2747,-1.2044,0.0111,0.1911,-0.9571,-1.5185,9.277,2.4579,0.9148,2.4149,0.8844,-7.509,7.0501,1.5734,-1.4705,0.4275,1.7157,-9.9718,-2.0082,-1.6395,-0.369695,0,1698373574.1437,40
-0.1669,0.2528,-0.2806,-1.0469,0.193,0.1699,-1.2363,-1.2508,9.3411,2.4073,1.0085,2.3007,0.8185,-7.3487,7.0127,1.6321,-1.5673,0.5517,1.9764,-9.7908,-1.8764,-1.5688,-0.414993,0,1698373574.1533,41
-0.1648,0.2543,-0.2861,-0.9437,0.3393,0.1927,-1.5051,-1.0736,9.4182,2.3538,1.0114,2.1795,0.7836,-7.1558,7.001,1.705,-1.6775,0.5443,1.913,-9.5674,-1.7815,-1.5144,-0.450181,0,1698373574.163,42
-0.1623,0.2516,-0.2927,-0.906,0.3056,0.288,-1.7795,-0.8668,9.5483,2.2586,0.9139,2.0726,0.7752,-6.9578,6.9929,1.7939,-1.7623,0.426,1.7965,-9.3362,-1.7281,-1.4639,-0.47884,0,1698373574.1737,43
-0.1583,0.2898,-0.2996,-0.8698,0.1481,0.4293,-2.008,-0.661,9.5826,2.1514,0.7325,2.0033,0.7865,-6.7731,6.9701,1.8771,-1.8298,0.2455,1.6387,-9.1266,-1.6839,-1.4054,-0.503931,0,1698373574.1839,43
-0.1529,0.3472,-0.3072,-0.8598,0.1094,0.5646,-2.1582,-0.6331,9.5924,2.0688,0.5124,1.9826,0.8013,-6.6197,6.9177,1.9407,-1.8958,0.0423,1.4521,-8.9507,-1.6553,-1.3321,-0.523997,0,1698373574.1946,44
-0.1472,0.3768,-0.3153,-0.8853,0.0153,0.7268,-2.2127,-0.6912,9.7063,1.9516,0.2903,2.0015,0.7983,-6.5171,6.8539,1.9808,-1.9421,-0.1625,1.2536,-8.8336,-1.6685,-1.2451,-0.538656,0,1698373574.2037,45
-0.142,0.4105,-0.3229,-0.9018,-0.246,0.9031,-2.1715,-0.7464,9.7443,1.912,0.0811,2.04,0.7798,-6.4411,6.7911,1.9918,-1.9635,-0.3624,1.0601,-8.7705,-1.6962,-1.1582,-0.548833,0,1698373574.2143,46
-0.1364,0.4372,-0.3309,-0.8803,-0.4772,1.0127,-2.1096,-0.8382,9.9222,1.833,-0.0984,2.0785,0.7594,-6.3677,6.7334,1.9657,-1.998,-0.5348,0.892,-8.7551,-1.7044,-1.0845,-0.461963,0,1698373574.2245,46
-0.1305,0.4589,-0.3392,-0.8491,-0.5161,1.0536,-2.0028,-1.0568,9.8174,1.7816,-0.2395,2.1126,0.7539,-6.3115,6.6956,1.9087,-2.0452,-0.672,0.7589,-8.8012,-1.7192,-1.029,-0.276238,0,1698373574.2347,47
-0.1255,0.4902,-0.3476,-0.8349,-0.6528,1.1151,-1.8687,-1.2682,9.6285,1.7952,-0.3466,2.1357,0.77,-6.2807,6.6996,1.8444,-2.0837,-0.7906,0.6546,-8.8931,-1.7396,-0.9906,-0.131767,0,1698373574.2437,48
-0.1212,0.482,-0.3559,-0.8223,-0.8911,1.1536,-1.7398,-1.4584,9.6358,1.818,-0.4263,2.1315,0.8038,-6.2586,6.7225,1.7844,-2.1084,-0.8801,0.5744,-8.9789,-1.7618,-0.9549,-0.06235,0,1698373574.2536,49
-0.1171,0.4529,-0.3635,-0.8075,-1.1112,1.1877,-1.5886,-1.6764,9.6572,1.7598,-0.4704,2.1027,0.8429,-6.2345,6.739,1.719,-2.0986,-0.9104,0.5241,-9.0354,-1.7797,-0.9192,-0.035562,0,1698373574.2632,49
-0.1131,0.4365,-0.3703,-0.7657,-1.3383,1.2202,-1.4311,-1.8043,9.7393,1.6231,-0.4816,2.0794,0.8774,-6.2214,6.7721,1.6613,-2.045,-0.8795,0.4978,-9.0499,-1.7807,-0.9037,-0.024272,0,1698373574.2729,50
-0.1096,0.4226,-0.3762,-0.6958,-1.5216,1.2386,-1.2763,-1.8748,9.6061,1.5398,-0.475,2.0827,0.8984,-6.2026,6.8087,1.6124,-1.9471,-0.8051,0.4842,-9.0365,-1.7798,-0.8898,-0.010037,0,1698373574.2833,51
-0.106,0.4172,-0.3806,-0.6288,-1.6929,1.229,-1.1323,-1.8646,9.4636,1.4875,-0.4613,2.1022,0.8967,-6.2025,6.8404,1.5927,-1.8106,-0.7073,0.4881,-9.0211,-1.7629,-0.866,0.009152,0,1698373574.2937,51
-0.1016,0.4284,-0.3839,-0.5407,-1.7629,1.1031,-1.0008,-1.9013,9.2669,1.5598,-0.4831,2.1387,0.8784,-6.2265,6.8816,1.5867,-1.65,-0.622,0.5091,-8.9872,-1.7246,-0.8533,0.002928,0,1698373574.3039,52
-0.0967,0.4482,-0.386,-0.4185,-1.8428,1.0377,-0.8714,-1.9063,9.1336,1.5175,-0.4931,2.1773,0.8565,-6.217,6.9371,1.5668,-1.4886,-0.5659,0.5347,-8.9766,-1.6799,-0.8194,-0.025912,0,1698373574.3141,53
-0.0914,0.4852,-0.3863,-0.3067,-1.9177,1.0466,-0.7326,-1.8044,9.1402,1.3757,-0.4711,2.1655,0.8411,-6.2177,6.9928,1.5925,-1.3829,-0.536,0.5478,-9.0093,-1.6337,-0.7541,-0.046804,0,1698373574.3241,54
-0.0857,0.5226,-0.3861,-0.2392,-1.987,1.0901,-0.5863,-1.6624,9.0389,1.2623,-0.5103,2.1069,0.8335,-6.2447,7.0323,1.6237,-1.3204,-0.5435,0.5298,-9.0253,-1.5863,-0.7028,-0.062937,0,1698373574.3344,54
-0.0793,0.5546,-0.386,-0.1901,-2.0492,1.1733,-0.42,-1.478,8.8587,1.2418,-0.5757,2.012,0.8336,-6.2117,7.0648,1.6233,-1.253,-0.5587,0.4801,-9.0231,-1.5399,-0.6437,-0.072987,0,1698373574.3443,55
-0.0722,0.6157,-0.3856,-0.1451,-2.0252,1.1988,-0.249,-1.1825,8.7572,1.1297,-0.6648,1.8863,0.8455,-6.163,7.0744,1.6372,-1.2152,-0.5636,0.398,-8.9855,-1.4864,-0.5922,-0.077695,0,1698373574.3537,56
-0.0649,0.6824,-0.3846,-0.0747,-2.0773,1.2603,-0.0505,-1.0286,8.726,1.0293,-0.7962,1.7724,0.8633,-6.1175,7.0868,1.6188,-1.2106,-0.5538,0.2925,-8.9093,-1.439,-0.5639,-0.091495,0,1698373574.3637,57
-0.0576,0.7046,-0.3826,0.0071,-2.1577,1.141,0.1829,-1.1641,8.8086,1.0459,-0.7261,1.6721,0.8695,-6.0781,7.1075,1.5928,-1.2266,-0.5394,0.1807,-8.848,-1.3894,-0.5628,-0.158469,0,1698373574.3739,57
-0.0501,0.6989,-0.3793,0.0887,-2.1163,1.0382,0.4315,-1.2497,8.8263,0.9144,-0.6947,1.5618,0.8496,-6.0438,7.127,1.5855,-1.2952,-0.5597,0.0547,-8.8118,-1.3271,-0.5807,-0.255913,0,1698373574.3839,58
-0.0428,0.6844,-0.3748,0.2002,-2.0048,1.1645,0.6561,-1.2874,8.6329,0.8588,-0.9004,1.43,0.7991,-5.996,7.1467,1.5447,-1.4167,-0.6224,-0.0892,-8.8228,-1.2845,-0.5852,-0.322541,0,1698373574.3951,59
-0.0347,0.6746,-0.3692,0.3075,-1.7495,1.163,0.811,-1.4487,8.554,1.0177,-1.0645,1.2493,0.7182,-6.0068,7.1633,1.5345,-1.5554,-0.7162,-0.2453,-8.8454,-1.2747,-0.6163,-0.357731,0,1698373574.4056,60
-0.0261,0.7054,-0.3638,0.3533,-1.4226,1.1064,0.8989,-1.6972,8.5553,1.1302,-1.1825,1.0297,0.6119,-6.0678,7.1744,1.535,-1.6427,-0.8207,-0.4126,-8.8604,-1.3118,-0.6438,-0.362447,0,1698373574.4156,60
-0.0179,0.7545,-0.3598,0.3538,-1.155,1.065,0.9126,-1.8518,8.5084,1.1336,-1.2571,0.7901,0.4901,-6.1688,7.1514,1.5451,-1.6585,-0.9316,-0.5945,-8.8642,-1.39,-0.6303,-0.343188,0,1698373574.4256,61
-0.0098,0.7881,-0.3568,0.3402,-0.8568,0.9194,0.8841,-2.0229,8.6052,1.1544,-1.2878,0.5495,0.3589,-6.3083,7.1066,1.581,-1.6163,-1.0459,-0.7911,-8.853,-1.4956,-0.5967,-0.309378,0,1698373574.4354,62
-0.0025,0.7727,-0.3542,0.3243,-0.5476,0.7289,0.8415,-2.241,8.5899,1.1629,-1.2827,0.3378,0.2246,-6.4361,7.0667,1.5928,-1.5093,-1.1542,-0.9874,-8.8647,-1.6253,-0.564,-0.271376,0,1698373574.4448,63
0.004,0.7338,-0.3524,0.2803,-0.2828,0.5749,0.7896,-2.3506,8.5041,1.1085,-1.2293,0.1436,0.0862,-6.5592,7.0517,1.5972,-1.3367,-1.2606,-1.1671,-8.8916,-1.7695,-0.545,-0.233046,0,1698373574.4548,63
0.0096,0.6813,-0.3516,0.2126,-0.031,0.3709,0.734,-2.4408,8.5793,1.039,-1.1784,-0.043,-0.0648,-6.6901,7.0653,1.5966,-1.0706,-1.3807,-1.3279,-8.9572,-1.9262,-0.5321,-0.169468,0,1698373574.4647,64
0.0144,0.613,-0.3515,0.1583,0.2258,0.1264,0.6704,-2.5258,8.606,0.9917,-1.1756,-0.234,-0.2247,-6.8121,7.0939,1.5937,-0.7131,-1.5302,-1.4818,-9.0808,-2.0671,-0.4854,-0.093379,0,1698373574.4746,65
0.0185,0.5748,-0.3515,0.1137,0.4765,-0.1317,0.5962,-2.5629,8.6395,0.9349,-1.1981,-0.4386,-0.3769,-6.9277,7.1282,1.6014,-0.316,-1.6974,-1.6236,-9.2394,-2.1742,-0.4222,-0.038819,0,1698373574.4836,66
0.0218,0.5264,-0.3515,0.0854,0.6925,-0.3798,0.5191,-2.563,8.8398,0.8918,-1.1627,-0.6836,-0.5021,-7.0867,7.2163,1.6445,0.0298,-1.8998,-1.7592,-9.4633,-2.2854,-0.3918,-0.001118,0,1698373574.4931,66
0.0243,0.4503,-0.3515,0.0635,0.8432,-0.5479,0.4429,-2.5111,9.1963,0.8982,-1.0168,-1.0008,-0.5771,-7.3206,7.385,1.7087,0.2712,-2.1703,-1.9191,-9.8158,-2.4376,-0.4118,0.024515,0,1698373574.5035,67
0.0258,0.3675,-0.3515,0.0413,0.9194,-0.687,0.3522,-2.3965,9.8167,1.0352,-0.8012,-1.3717,-0.5987,-7.6062,7.5965,1.7642,0.4885,-2.4648,-2.1081,-10.2488,-2.6341,-0.4845,0.041553,0,1698373574.5135,68
0.026,0.2833,-0.3511,0.0426,0.8908,-0.772,0.229,-2.1442,10.6039,1.3172,-0.6005,-1.7355,-0.5814,-7.9462,7.8003,1.8036,0.7724,-2.6978,-2.323,-10.6146,-2.8452,-0.5984,0.052022,0,1698373574.5231,69
0.0257,0.2036,-0.3503,0.0596,0.889,-0.7758,0.0787,-1.8168,11.3882,1.6336,-0.4497,-2.0259,-0.5467,-8.3126,7.907,1.8296,0.9033,-2.739,-2.5292,-10.779,-3.0159,-0.7815,0.05861,0,1698373574.5338,69
0.0252,0.14,-0.3493,0.0782,0.9788,-0.7907,-0.0713,-1.5108,11.9067,1.9803,-0.3599,-2.1755,-0.5393,-8.5767,7.8797,1.8404,1.069,-2.5154,-2.6731,-10.8021,-3.1541,-0.9882,0.064169,0,1698373574.545,70
0.0239,0.0868,-0.3474,0.1251,1.2045,-0.7716,-0.2244,-1.1585,11.7079,2.3172,-0.3634,-2.175,-0.6094,-8.6714,7.7664,1.7949,1.3868,-2.1235,-2.6801,-10.8105,-3.2441,-1.1345,0.099608,0,1698373574.5563,71
0.0208,-0.0344,-0.3444,0.1786,1.4932,-0.807,-0.351,-0.8651,11.2942,2.6744,-0.4453,-2.074,-0.7644,-8.703,7.6329,1.7037,1.557,-1.7083,-2.504,-10.8368,-3.2706,-1.2116,0.209242,0,1698373574.5659,72
0.0149,-0.198,-0.3404,0.2463,1.8052,-0.9231,-0.3982,-0.6329,11.1012,2.8929,-0.5678,-1.9573,-0.982,-8.7281,7.5116,1.5823,1.6287,-1.3433,-2.213,-10.866,-3.2865,-1.2594,0.356582,0,1698373574.5765,72
0.006,-0.3706,-0.3345,0.3285,2.1975,-1.0099,-0.365,-0.5705,10.8173,2.974,-0.6996,-1.8922,-1.22,-8.731,7.3524,1.4008,1.6912,-1.0418,-1.9094,-10.8577,-3.3234,-1.2888,0.489037,0,1698373574.5855,73
-0.0054,-0.6003,-0.3267,0.444,2.5048,-1.1251,-0.2864,-0.716,10.6297,3.0674,-0.8079,-1.8757,-1.4347,-8.741,7.1389,1.2212,1.8224,-0.8077,-1.6506,-10.7393,-3.3884,-1.3113,0.600863,0,1698373574.5957,74
-0.0189,-0.8299,-0.3175,0.5963,2.6318,-1.241,-0.181,-0.8801,10.6072,3.1052,-0.8307,-1.8867,-1.5972,-8.744,6.8548,1.1364,2.0803,-0.6002,-1.4734,-10.4386,-3.5049,-1.3452,0.689558,0,1698373574.6057,75
-0.0348,-1.0138,-0.3067,0.7526,2.7373,-1.4298,-0.0889,-1.1171,10.5625,3.1608,-0.6958,-1.9174,-1.7115,-8.7054,6.4303,1.1398,2.4817,-0.3658,-1.3912,-9.9874,-3.6713,-1.4019,0.758697,0,1698373574.6157,75
-0.0528,-1.2365,-0.2946,0.8658,2.7544,-1.6566,-0.0208,-1.2932,10.4379,3.1919,-0.39,-1.9976,-1.8241,-8.6626,5.9147,1.2183,3.0022,-0.1147,-1.3725,-9.4154,-3.8577,-1.5034,0.812302,0,1698373574.6254,76
-0.0722,-1.4326,-0.2818,0.9361,2.5326,-1.8268,0.0236,-1.2493,10.4599,3.1506,0.0504,-2.1535,-1.9602,-8.6336,5.4398,1.3454,3.5608,0.1093,-1.3912,-8.8306,-4.052,-1.643,0.853977,0,1698373574.636,77
-0.0928,-1.5978,-0.2689,1.0038,2.3526,-2.0689,0.0402,-1.2443,10.382,3.1424,0.5356,-2.371,-2.1025,-8.5708,5.0681,1.4277,4.0722,0.2748,-1.4389,-8.3533,-4.2272,-1.8179,0.886271,0,1698373574.6461,78
-0.1144,-1.798,-0.256,1.047,1.9,-2.2638,0.0786,-1.1982,10.0257,3.1153,0.9603,-2.6242,-2.2045,-8.4565,4.8264,1.4639,4.4294,0.3573,-1.4948,-8.0235,-4.3349,-1.9928,0.911115,0,1698373574.6552,78
-0.1368,-1.9606,-0.2439,1.0595,1.3781,-2.3844,0.0838,-0.982,10.0023,2.9939,1.285,-2.878,-2.225,-8.3121,4.7252,1.5016,4.6353,0.3643,-1.5697,-7.8624,-4.3329,-2.1305,0.93027,0,1698373574.6654,79
-0.1596,-2.0838,-0.2332,1.0463,1.1576,-2.5038,0.0528,-0.9095,10.1089,3.0051,1.4997,-3.0837,-2.1582,-8.1117,4.7223,1.5106,4.7875,0.3032,-1.6679,-7.8424,-4.2297,-2.1822,0.944705,0,1698373574.6762,80
-0.1819,-2.137,-0.224,1.0208,0.7588,-2.501,0.0211,-0.7529,10.0672,2.99,1.5582,-3.2213,-2.0279,-7.8754,4.7777,1.5098,4.8759,0.1681,-1.7519,-7.9444,-4.0557,-2.1141,0.955544,0,1698373574.6854,81
-0.2032,-2.1571,-0.216,0.9684,0.4098,-2.4877,-0.0248,-0.4341,10.0139,2.8473,1.4929,-3.2864,-1.8526,-7.663,4.9063,1.5343,4.8585,0.0119,-1.795,-8.1317,-3.8519,-1.9903,0.964474,0,1698373574.6957,81
-0.2232,-2.1695,-0.2086,0.93,0.2453,-2.4715,-0.04,-0.087,9.9865,2.702,1.3782,-3.2535,-1.6585,-7.4608,5.0787,1.5758,4.7027,-0.1017,-1.7816,-8.4177,-3.6484,-1.8616,0.972126,0,1698373574.7063,82
-0.2414,-2.097,-0.2008,0.9338,0.1542,-2.4044,0.0316,0.2377,9.8013,2.6744,1.2261,-3.1248,-1.4668,-7.311,5.27,1.6356,4.4342,-0.126,-1.6928,-8.743,-3.469,-1.7554,0.978313,0,1698373574.7157,83
-0.2577,-1.9667,-0.1923,0.9277,0.2112,-2.3471,0.176,0.4313,9.4974,2.8291,1.0645,-2.9336,-1.2915,-7.2144,5.4514,1.6884,4.1064,-0.0256,-1.5215,-9.0264,-3.3219,-1.692,0.983148,0,1698373574.7254,84
-0.2719,-1.8151,-0.1829,0.9054,0.2759,-2.231,0.3809,0.6028,9.222,2.8993,1.1341,-2.7221,-1.1527,-7.1643,5.5833,1.7407,3.752,0.1751,-1.2896,-9.2215,-3.2006,-1.6496,0.986909,0,1698373574.736,84
-0.2839,-1.6646,-0.1728,0.9343,0.4063,-2.0548,0.6177,0.747,9.1399,2.8228,1.172,-2.5101,-1.0586,-7.1614,5.6635,1.7701,3.3958,0.4162,-1.2476,-9.2815,-3.1383,-1.6007,0.989831,0,1698373574.7463,85
-0.2934,-1.4848,-0.1623,0.9665,0.5937,-1.8404,0.8757,0.8012,9.1555,2.7242,0.9935,-2.2891,-0.9983,-7.1958,5.678,1.8097,3.0595,0.6512,-1.1629,-9.2114,-3.146,-1.5488,0.992101,0,1698373574.7558,86
-0.3011,-1.3102,-0.1517,0.9619,0.8287,-1.6039,1.1435,0.8124,9.1019,2.6513,0.8779,-2.057,-0.9549,-7.2458,5.6163,1.8576,2.7685,0.8661,-0.8467,-9.0423,-3.2137,-1.5131,0.993864,0,1698373574.7657,87
-0.3076,-1.1732,-0.1413,0.9513,1.1135,-1.3666,1.3949,0.74,8.9044,2.619,0.8375,-1.8452,-0.9279,-7.2677,5.4914,1.928,2.5126,1.0663,-0.5788,-8.8296,-3.3171,-1.4714,0.995234,0,1698373574.7754,87
-0.313,-1.0314,-0.1311,0.9267,1.3091,-1.3714,1.632,0.5633,8.7187,2.6463,0.8368,-1.6688,-0.9232,-7.2709,5.3276,2.0283,2.278,1.2482,-0.3614,-8.5669,-3.4094,-1.4275,0.996298,0,1698373574.7861,88
-0.3179,-0.9105,-0.1212,0.9305,1.444,-1.3326,1.8365,0.3878,8.6746,2.6001,0.8703,-1.5223,-0.94,-7.2129,5.1589,2.0985,2.095,1.404,-0.2011,-8.2947,-3.4934,-1.3771,0.997125,0,1698373574.7957,89
-0.3229,-0.8276,-0.1117,0.9223,1.4355,-1.0664,1.9835,0.2801,8.8743,2.4456,0.9296,-1.4154,-0.9701,-7.1284,5.0196,2.1819,1.9852,1.5147,-0.0902,-8.0771,-3.5761,-1.3129,0.997766,0,1698373574.8058,90
-0.3283,-0.7642,-0.1028,0.8865,1.4016,-0.9081,2.0746,0.1834,9.113,2.3218,0.9799,-1.3324,-1.0045,-7.0082,4.9231,2.2469,1.9579,1.565,-0.0185,-7.9108,-3.6338,-1.2456,0.998264,0,1698373574.8161,90
-0.3337,-0.708,-0.0942,0.8713,1.3897,-0.8364,2.1207,0.028,9.1846,2.2123,1.0352,-1.2593,-1.0304,-6.8878,4.8699,2.2921,1.9725,1.5631,0.0209,-7.7728,-3.6664,-1.1752,0.998651,0,1698373574.8256,91
-0.3397,-0.6961,-0.086,0.8523,1.2919,-0.8088,2.1241,-0.0563,9.3068,2.0653,1.1046,-1.1847,-1.0386,-6.7775,4.8402,2.3344,1.9838,1.5088,0.0345,-7.6958,-3.6786,-1.0916,0.998951,0,1698373574.8359,92
-0.3466,-0.7056,-0.078,0.822,1.1725,-0.8325,2.0816,-0.0565,9.4489,1.9356,1.1806,-1.1003,-1.0168,-6.6749,4.8221,2.3702,1.984,1.4053,0.0264,-7.6753,-3.6645,-1.0005,0.999183,0,1698373574.8456,93
-0.3539,-0.7425,-0.0704,0.8033,0.9766,-0.9131,1.9932,-0.0971,9.5233,1.8613,1.2661,-1.0041,-0.9633,-6.6044,4.8149,2.4247,1.9749,1.2933,0.0047,-7.6727,-3.6397,-0.9209,0.999364,0,1698373574.8558,93
-0.3617,-0.7979,-0.0626,0.7913,0.6966,-0.9919,1.87,-0.123,9.5487,1.7905,1.3452,-0.8945,-0.8987,-6.5515,4.8248,2.4917,1.9439,1.1961,-0.0207,-7.6937,-3.6135,-0.8465,0.999505,0,1698373574.8654,94
-0.3695,-0.8112,-0.0552,0.7668,0.353,-1.0745,1.6754,-0.0242,9.7048,1.6705,1.3939,-0.7837,-0.8315,-6.555,4.8485,2.5843,1.8832,1.1121,-0.0421,-7.7303,-3.5897,-0.7888,0.999614,0,1698373574.876,95
-0.3767,-0.786,-0.0479,0.7695,0.0912,-1.1795,1.4536,0.1258,9.609,1.5667,1.4335,-0.6747,-0.7537,-6.5655,4.8878,2.6926,1.8028,1.0486,-0.0519,-7.7954,-3.568,-0.7532,0.999697,0,1698373574.8857,96
-0.3835,-0.7445,-0.0408,0.7963,-0.1624,-1.2636,1.2114,0.2848,9.5153,1.4871,1.4608,-0.567,-0.6643,-6.5755,4.9229,2.7767,1.6969,1.0061,-0.0442,-7.8667,-3.5388,-0.7238,0.999756,0,1698373574.8955,96
-0.3892,-0.6807,-0.0338,0.7932,-0.4625,-1.2752,0.9543,0.5305,9.5898,1.3571,1.5041,-0.4791,-0.5668,-6.5993,4.9504,2.8527,1.5652,0.979,-0.0229,-7.9219,-3.5332,-0.6953,0.999763,0,1698373574.906,97
-0.3935,-0.6079,-0.0264,0.8022,-0.6274,-1.292,0.7298,0.6667,9.5458,1.3518,1.5676,-0.4312,-0.4629,-6.6205,4.9905,2.9024,1.3982,0.969,0.0082,-7.9915,-3.5599,-0.6611,0.999269,0,1698373574.9154,98
-0.3969,-0.5481,-0.0187,0.8264,-0.7572,-1.299,0.5273,0.7103,9.5451,1.3624,1.5974,-0.4213,-0.3651,-6.6682,5.0296,2.9164,1.2045,0.9715,0.0477,-8.0592,-3.5986,-0.6185,0.996818,0,1698373574.9266,99
-0.3993,-0.4859,-0.0104,0.8323,-0.927,-1.2158,0.3454,0.8864,9.5699,1.2677,1.5838,-0.4401,-0.2722,-6.755,5.0704,2.9206,1.0106,0.976,0.092,-8.1112,-3.6505,-0.5785,0.989344,0,1698373574.9364,99
-0.4004,-0.4015,-0.0023,0.839,-1.0087,-1.1342,0.1921,1.0394,9.5865,1.2386,1.5486,-0.4879,-0.1752,-6.8293,5.1211,2.9071,0.8217,0.9761,0.1383,-8.1717,-3.7227,-0.5565,0.973417,0,1698373574.9456,0
-0.4004,-0.2926,0.0053,0.8243,-1.009,-1.0631,0.0688,1.1208,9.6403,1.2309,1.4837,-0.5523,-0.0778,-6.9015,5.1423,2.8995,0.6638,0.9642,0.187,-8.2208,-3.7982,-0.5448,0.950476,0,1698373574.9554,1
-0.4001,-0.1953,0.0132,0.8043,-1.0604,-0.9678,-0.0244,1.0606,9.7423,1.2383,1.4095,-0.6244,0.0303,-6.9773,5.1425,2.9232,0.5651,0.955,0.2411,-8.2442,-3.8852,-0.5376,0.927031,0,1698373574.966,2
-0.3993,-0.1217,0.0208,0.7836,-1.2461,-0.8103,-0.1113,0.95,9.9639,1.2136,1.3228,-0.6916,0.1432,-7.0264,5.1434,2.9585,0.5191,0.9555,0.3044,-8.2619,-3.9662,-0.5287,0.902365,0,1698373574.9755,2
-0.3973,-0.0469,0.0278,0.7739,-1.5496,-0.5363,-0.2299,1.1209,9.8452,1.1553,1.1865,-0.7548,0.2437,-7.0543,5.1348,3.0228,0.5268,0.95,0.3706,-8.2548,-4.0186,-0.5328,0.861673,0,1698373574.9861,3
-0.394,0.0348,0.0343,0.7462,-1.9141,-0.228,-0.3664,1.4567,9.7573,1.0422,1.0133,-0.8201,0.3336,-7.057,5.15,3.1348,0.5763,0.9507,0.4366,-8.2206,-4.0599,-0.556,0.797361,0,1698373574.9957,4
-0.3893,0.1568,0.0401,0.6972,-2.1443,0.0422,-0.463,1.6826,9.8139,0.9637,0.7935,-0.8546,0.4231,-7.0415,5.1717,3.23,0.6377,0.965,0.5031,-8.185,-4.0625,-0.5754,0.720219,0,1698373575.0058,5
-0.3825,0.2902,0.0457,0.712,-2.0871,0.2716,-0.4648,1.7012,9.4002,1.0588,0.5334,-0.8891,0.4952,-7.0227,5.1885,3.2968,0.6726,0.9803,0.5752,-8.171,-4.0194,-0.5873,0.657409,0,1698373575.0158,6
-0.3746,0.4088,0.0519,0.7156,-1.868,0.489,-0.4073,1.7271,8.9894,1.2284,0.2435,-0.9449,0.5503,-7.0044,5.2201,3.3379,0.6214,0.976,0.656,-8.2008,-3.9386,-0.5871,0.632695,0,1698373575.0261,7
-0.366,0.5216,0.0586,0.7152,-1.5879,0.7397,-0.344,1.7918,8.6829,1.4315,-0.0703,-0.9822,0.6195,-6.9733,5.2681,3.3408,0.4145,0.9284,0.7357,-8.2859,-3.8232,-0.5934,0.650457,0,1698373575.0357,7
-0.3572,0.5805,0.0656,0.7322,-1.3106,1.0017,-0.2666,1.8055,8.5557,1.6049,-0.3694,-0.9788,0.7117,-6.9345,5.3356,3.3187,0.0502,0.8471,0.8036,-8.4244,-3.7141,-0.6119,0.690167,0,1698373575.0454,8
-0.3488,0.6056,0.0727,0.7313,-0.9939,1.2538,-0.1656,1.7998,8.5531,1.7042,-0.6247,-0.972,0.8079,-6.906,5.4153,3.287,-0.4135,0.7575,0.8521,-8.5879,-3.6365,-0.6407,0.725769,0,1698373575.0557,9
-0.3411,0.6014,0.0792,0.7307,-0.6396,1.4948,-0.0668,1.7575,8.6441,1.6936,-0.8102,-0.9572,0.904,-6.9062,5.4954,3.2689,-0.9296,0.6802,0.8864,-8.7616,-3.5966,-0.6586,0.75222,0,1698373575.0655,10
-0.3346,0.5802,0.085,0.7133,-0.3082,1.7177,0.0347,1.665,8.8514,1.6073,-0.9552,-0.8938,1.0102,-6.9484,5.584,3.2861,-1.4182,0.6006,0.9104,-8.9334,-3.6017,-0.6762,0.767494,0,1698373575.0755,11
-0.3295,0.5578,0.0903,0.6663,0.0523,1.8952,0.1392,1.5348,8.9434,1.5239,-1.0874,-0.8105,1.1122,-7.0341,5.6713,3.3387,-1.7935,0.5047,0.9283,-9.0773,-3.6526,-0.7225,0.774441,0,1698373575.0854,11
-0.326,0.4899,0.0947,0.5937,0.369,2.0645,0.2109,1.4311,9.0908,1.4071,-1.2148,-0.7193,1.2077,-7.1605,5.7405,3.4285,-2.0253,0.4064,0.943,-9.1616,-3.7534,-0.7822,0.781599,0,1698373575.096,12
-0.3244,0.3899,0.098,0.5139,0.609,2.237,0.2419,1.3449,9.2804,1.2308,-1.3555,-0.6281,1.2938,-7.2903,5.8129,3.5694,-2.1006,0.2763,0.9373,-9.1877,-3.879,-0.8184,0.780044,0,1698373575.1058,13
-0.3242,0.301,0.1008,0.4613,0.8448,2.3249,0.2515,1.1572,9.3831,1.037,-1.5176,-0.5529,1.3674,-7.4092,5.8785,3.7466,-2.0567,0.0866,0.9014,-9.1791,-3.9996,-0.8068,0.686981,0,1698373575.1155,14
-0.3244,0.2423,0.1039,0.4157,0.9778,2.4171,0.2649,0.8876,9.5165,0.717,-1.6964,-0.5253,1.4179,-7.5259,5.942,3.9314,-1.9716,-0.186,0.8267,-9.1613,-4.0943,-0.7718,0.478637,0,1698373575.1262,15
-0.3244,0.2057,0.1074,0.3827,1.0546,2.5253,0.26,0.7287,9.6966,0.2896,-1.8941,-0.5651,1.4408,-7.6259,6.0309,4.0979,-1.891,-0.54,0.7107,-9.1736,-4.1785,-0.7272,0.247052,0,1698373575.136,15
-0.3244,0.1719,0.1106,0.3761,1.1577,2.6145,0.2059,0.728,9.9386,-0.0295,-2.1413,-0.6676,1.4561,-7.6905,6.1724,4.197,-1.8479,-0.9829,0.5584,-9.27,-4.2557,-0.7046,0.033876,0,1698373575.1459,16
-0.3243,0.1372,0.113,0.3631,1.231,2.6888,0.1144,0.8407,10.1925,-0.1269,-2.4808,-0.7908,1.491,-7.7409,6.3801,4.2202,-1.8188,-1.5306,0.3582,-9.4906,-4.3208,-0.7173,-0.142751,0,1698373575.1557,17
-0.3243,0.1075,0.1149,0.34,1.2496,2.687,0.0289,0.9251,10.4593,-0.0377,-2.8578,-0.9034,1.5752,-7.8159,6.6144,4.2049,-1.9631,-2.0812,0.1159,-9.7685,-4.3614,-0.7597,-0.081852,0,1698373575.1656,18
-0.3234,0.0998,0.1157,0.2853,1.2222,2.5543,-0.0077,0.725,11.1,0.1177,-3.172,-1.0208,1.6985,-7.9402,6.8193,4.1681,-1.9901,-2.5371,-0.1303,-10.0277,-4.3807,-0.7809,0.158598,0,1698373575.176,19
-0.3208,0.1361,0.1156,0.2021,1.2095,2.3259,0.0099,0.2127,11.4817,0.3982,-3.3896,-1.1119,1.8309,-8.0562,6.9572,4.0845,-1.7374,-2.8707,-0.3369,-10.2371,-4.3777,-0.7653,0.346457,0,1698373575.1854,20
-0.3157,0.2524,0.1153,0.1206,1.1102,2.1494,0.0517,-0.1985,11.4472,0.734,-3.5126,-1.1469,1.9321,-8.1198,7.0648,3.9623,-1.5855,-3.0906,-0.488,-10.4087,-4.3172,-0.7669,0.492374,0,1698373575.1964,20
-0.3081,0.4111,0.1149,0.0545,1.004,2.0089,0.1046,-0.4111,11.5266,1.1068,-3.5399,-1.1238,1.9766,-8.1803,7.1908,3.8354,-1.5638,-3.2214,-0.5976,-10.5763,-4.2292,-0.8332,0.605712,0,1698373575.2057,21
-0.2996,0.519,0.1136,-0.0214,1.0239,1.6791,0.2676,-0.732,11.5008,1.6198,-3.4069,-1.0036,1.9728,-8.2395,7.3251,3.6807,-1.6475,-3.2599,-0.6692,-10.7214,-4.1163,-0.9824,0.693741,0,1698373575.2161,22
-0.2924,0.5583,0.1097,-0.1424,1.0836,1.4186,0.51,-1.063,11.5867,2.0866,-3.0488,-0.7398,1.9187,-8.3186,7.4358,3.4856,-1.8472,-3.173,-0.6873,-10.8195,-3.9655,-1.1827,0.762004,0,1698373575.226,23
-0.2869,0.5337,0.1026,-0.2927,1.3174,1.4166,0.7137,-1.1557,11.6691,2.4765,-2.5491,-0.3687,1.8128,-8.4191,7.4878,3.2839,-2.1019,-2.9241,-0.6485,-10.8264,-3.7981,-1.4024,0.814932,0,1698373575.2356,24
-0.2834,0.4607,0.092,-0.4683,1.7317,1.38,0.8617,-1.2214,11.3058,2.8649,-2.0178,0.0345,1.6522,-8.4744,7.4449,3.1045,-2.3177,-2.4921,-0.5476,-10.6764,-3.5893,-1.5821,0.856066,0,1698373575.246,24
-0.2821,0.3872,0.0781,-0.674,1.9333,1.3465,0.9212,-1.1318,10.8848,3.0974,-1.5003,0.4628,1.437,-8.403,7.3006,2.921,-2.4606,-1.8992,-0.3772,-10.3558,-3.33,-1.7185,0.88785,0,1698373575.2555,25
-0.2807,0.3572,0.0614,-0.893,1.2028,1.3972,0.9223,-0.7612,11.6443,2.6792,-1.0336,0.9412,1.1915,-8.1262,7.0845,2.6949,-2.5265,-1.2205,-0.1401,-9.9162,-3.0285,-1.8186,0.848969,0,1698373575.2654,26
-0.276,0.4505,0.0415,-1.1758,0.4445,1.538,0.8192,-0.336,12.8391,1.9458,-0.712,1.4346,0.9523,-7.6712,6.8716,2.4241,-2.5716,-0.5647,0.1498,-9.4523,-2.6742,-1.8586,0.781785,0,1698373575.2765,27
-0.2667,0.6425,0.0191,-1.4202,0.706,1.5383,0.6155,-0.3454,12.3156,1.9806,-0.5994,1.9048,0.7366,-7.1326,6.7462,2.1344,-2.6706,-0.0647,0.4525,-9.1088,-2.3066,-1.8261,0.789535,0,1698373575.2853,28
-0.254,0.8228,-0.005,-1.5728,0.904,1.5376,0.3619,-0.3816,11.3519,2.1347,-0.6755,2.3544,0.5896,-6.5667,6.7074,1.8393,-2.8711,0.1635,0.7209,-8.9367,-1.9248,-1.741,0.831687,0,1698373575.2965,28
-0.2401,0.9382,-0.0305,-1.7095,0.7877,1.7348,0.1112,-0.0874,11.0912,2.1346,-0.9042,2.7274,0.5784,-6.0652,6.7238,1.5414,-3.1563,0.0842,0.902,-8.8732,-1.5392,-1.6356,0.863384,0,1698373575.3059,29
-0.2269,0.9928,-0.0561,-1.9021,0.7237,1.871,-0.0648,-0.0422,10.7476,2.4243,-1.214,2.9627,0.6789,-5.6938,6.7546,1.2938,-3.4418,-0.227,0.9652,-8.8627,-1.2371,-1.535,0.884666,0,1698373575.3153,30
-0.2159,0.9989,-0.0807,-2.0615,0.4942,1.9486,-0.175,-0.1528,10.5029,2.588,-1.5901,3.0653,0.8132,-5.475,6.7613,1.1329,-3.6516,-0.6392,0.9069,-8.8604,-1.0516,-1.4598,0.899015,0,1698373575.326,31
-0.207,0.9474,-0.1044,-2.1094,0.1208,2.089,-0.2368,-0.297,10.421,2.5827,-2.0024,3.0674,0.926,-5.4415,6.7375,1.0283,-3.7634,-1.0548,0.75,-8.8474,-1.0187,-1.4161,0.90313,0,1698373575.3359,32
-0.2003,0.8562,-0.1281,-2.1864,-0.1615,2.1793,-0.3061,-0.5618,10.2444,2.5975,-2.3465,2.9941,0.9812,-5.6084,6.6892,0.9797,-3.8034,-1.4288,0.5463,-8.8256,-1.1896,-1.4095,0.899446,0,1698373575.3459,33
-0.1947,0.7802,-0.1515,-2.198,-0.3093,2.0278,-0.4562,-1.0089,10.5362,2.443,-2.5438,2.8647,0.9653,-5.9558,6.6339,0.9991,-3.7552,-1.7193,0.3327,-8.7877,-1.5362,-1.4243,0.888473,0,1698373575.3558,33
-0.1889,0.7367,-0.1739,-2.1702,-0.3328,1.7747,-0.5993,-1.5964,10.6853,2.2824,-2.5693,2.7097,0.8891,-6.4128,6.5657,1.0991,-3.5533,-1.8784,0.1344,-8.7017,-1.9684,-1.4393,0.823815,0,1698373575.366,34
-0.183,0.6973,-0.1949,-2.1221,-0.4142,1.717,-0.6933,-2.0586,10.2337,2.1382,-2.3761,2.579,0.7591,-6.9054,6.4546,1.2413,-3.2175,-1.8486,-0.0154,-8.5814,-2.4089,-1.4515,0.6613,0,1698373575.3753,35
-0.1766,0.6782,-0.2143,-2.0635,-0.6018,1.6807,-0.8388,-2.3565,9.9559,1.9753,-1.9669,2.5082,0.5738,-7.3826,6.3179,1.3792,-2.8178,-1.6167,-0.1019,-8.4979,-2.8066,-1.4645,0.45334,0,1698373575.386,36
-0.1694,0.7017,-0.232,-1.9929,-0.6274,1.431,-1.031,-2.6322,9.6961,2.0036,-1.4037,2.4975,0.3497,-7.7656,6.1895,1.4762,-2.3812,-1.2286,-0.1265,-8.4715,-3.0947,-1.4695,0.259979,0,1698373575.3955,37
-0.1619,0.7522,-0.2479,-1.8871,-0.4461,1.0648,-1.2366,-2.7867,9.3608,2.0453,-0.7514,2.5216,0.0931,-7.9684,6.1053,1.5454,-1.9279,-0.7423,-0.0876,-8.5074,-3.2188,-1.4618,0.105453,0,1698373575.4058,37
-0.1543,0.7857,-0.262,-1.7603,-0.1613,0.6501,-1.4491,-2.7688,9.0433,2.12,-0.0932,2.5284,-0.218,-7.9712,6.0807,1.5975,-1.4821,-0.2384,-0.0046,-8.5732,-3.1861,-1.4343,0.003576,0,1698373575.4158,38
-0.1467,0.7888,-0.2743,-1.5821,0.1528,0.2095,-1.6534,-2.6742,8.8316,2.175,0.4872,2.4493,-0.5362,-7.7534,6.0603,1.5725,-1.0821,0.2246,0.0999,-8.6337,-3.0412,-1.3591,-0.062438,0,1698373575.4255,39
-0.1391,0.7962,-0.2846,-1.416,0.3899,-0.2248,-1.847,-2.5371,8.742,2.1577,0.9184,2.283,-0.7809,-7.3924,6.0194,1.493,-0.7688,0.6021,0.2024,-8.7028,-2.8158,-1.2486,-0.106937,0,1698373575.436,40
-0.1312,0.7999,-0.2939,-1.2741,0.6636,-0.6533,-2.0178,-2.3924,8.6963,2.0797,1.1774,2.1053,-0.9607,-7.04,6.0643,1.4507,-0.5494,0.8603,0.2974,-8.7787,-2.5395,-1.1078,-0.120116,0,1698373575.4455,41
-0.1231,0.8112,-0.3026,-1.1821,0.8651,-1.0006,-2.1496,-2.1654,8.7337,1.9797,1.3139,1.9852,-1.0867,-6.7118,6.1777,1.4678,-0.4079,0.9902,0.3796,-8.8358,-2.2883,-0.9382,-0.084323,0,1698373575.4553,41
-0.1148,0.8455,-0.3112,-1.124,0.9969,-1.2721,-2.2486,-1.9265,8.7772,1.9541,1.3917,1.9413,-1.1803,-6.3978,6.2805,1.5156,-0.3381,1.0229,0.4342,-8.8251,-2.0998,-0.7924,-0.028401,0,1698373575.4655,42
-0.106,0.8554,-0.3196,-1.0478,0.847,-1.4889,-2.3085,-1.7262,8.7497,1.9684,1.4292,1.9191,-1.1789,-6.1355,6.359,1.5627,-0.3248,1.0168,0.4672,-8.7497,-1.9844,-0.6692,0.014291,0,1698373575.4763,43
-0.0969,0.8743,-0.3278,-0.998,0.6343,-1.6011,-2.3337,-1.4624,8.7049,2.0041,1.437,1.8866,-1.0636,-5.9339,6.3783,1.6176,-0.34,1.0044,0.4928,-8.6478,-1.9306,-0.5799,0.047405,0,1698373575.4854,44
-0.0876,0.9157,-0.336,-0.9781,0.5935,-1.6337,-2.3166,-1.1885,8.7222,2.0631,1.397,1.8349,-0.9348,-5.7979,6.3666,1.6969,-0.3654,0.987,0.511,-8.5468,-1.9193,-0.54,0.072599,0,1698373575.4959,45
-0.0787,0.9343,-0.3438,-0.933,0.5371,-1.6701,-2.2556,-1.0499,8.7071,2.098,1.2876,1.7675,-0.8238,-5.7566,6.3422,1.7729,-0.392,0.9591,0.5106,-8.4523,-1.9525,-0.5255,0.091377,0,1698373575.506,46
-0.0702,0.9179,-0.3516,-0.8823,0.414,-1.6464,-2.163,-0.9384,8.6723,2.1149,1.1412,1.7057,-0.7358,-5.7935,6.3025,1.8325,-0.4058,0.9238,0.4924,-8.3834,-2.006,-0.513,0.105887,0,1698373575.5154,46
-0.0623,0.8629,-0.3589,-0.8562,0.1438,-1.5487,-2.0213,-0.9422,8.7247,2.066,1.0088,1.645,-0.6657,-5.853,6.2614,1.8769,-0.391,0.8793,0.4579,-8.3515,-2.0682,-0.4893,0.103596,0,1698373575.5259,47
-0.055,0.7965,-0.366,-0.8527,-0.1216,-1.4311,-1.8413,-1.0702,8.7499,1.833,0.9179,1.5816,-0.6028,-5.9218,6.2325,1.9304,-0.3463,0.82,0.4123,-8.337,-2.1229,-0.4709,0.060863,0,1698373575.5352,48
-0.0482,0.7245,-0.3724,-0.7964,-0.4521,-1.2988,-1.6333,-1.1017,8.8504,1.571,0.8788,1.5153,-0.5445,-5.9871,6.2298,1.9925,-0.2859,0.7654,0.3632,-8.3398,-2.1673,-0.462,-0.010204,0,1698373575.5453,49
-0.0419,0.6822,-0.3777,-0.7004,-0.8068,-1.1918,-1.4053,-1.1618,8.921,1.4859,0.8851,1.4545,-0.4942,-6.0418,6.2421,2.0536,-0.2229,0.7486,0.3132,-8.3578,-2.2042,-0.435,-0.083914,0,1698373575.5564,50
-0.0353,0.6751,-0.3821,-0.6344,-1.1829,-1.0644,-1.172,-1.2469,8.923,1.4056,0.9223,1.4064,-0.4517,-6.0912,6.2496,2.1112,-0.1569,0.7748,0.2684,-8.3803,-2.2258,-0.3681,-0.153661,0,1698373575.5661,50
-0.0287,0.6714,-0.3858,-0.5803,-1.5295,-0.9654,-0.9464,-1.2775,9.1329,1.2331,0.9572,1.3664,-0.4254,-6.1221,6.2824,2.1557,-0.1039,0.8368,0.2378,-8.4082,-2.2381,-0.3011,-0.21526,0,1698373575.5754,51
-0.022,0.6838,-0.3887,-0.5077,-1.8226,-0.8562,-0.7431,-1.2448,9.2353,1.1211,0.9494,1.3312,-0.4102,-6.1199,6.3431,2.191,-0.0755,0.9106,0.2209,-8.4395,-2.2341,-0.2534,-0.267798,0,1698373575.5861,52
-0.0148,0.6981,-0.3901,-0.4097,-2.0716,-0.7389,-0.7607,-1.2304,9.0944,1.1148,0.9109,1.2935,-0.3975,-6.0904,6.4023,2.2145,-0.0603,0.973,0.2103,-8.4745,-2.1988,-0.219,-0.314901,0,1698373575.5961,53
-0.0072,0.7223,-0.3903,-0.307,-2.5368,-0.6504,-0.7412,-1.185,9.0819,1.0548,0.8555,1.2456,-0.3851,-6.0437,6.463,2.2375,-0.0511,1.0164,0.2038,-8.5127,-2.1378,-0.2148,-0.364834,0,1698373575.6057,54
0.0008,0.749,-0.3901,-0.222,-2.8334,-0.5876,-0.4609,-1.1434,8.9466,1.0058,0.7911,1.1853,-0.3737,-5.988,6.5211,2.2409,-0.0328,1.0347,0.1953,-8.542,-2.0818,-0.228,-0.416535,0,1698373575.6158,54
0.0091,0.772,-0.3899,-0.1501,-2.728,-0.6079,-0.1777,-1.2446,8.6574,1.0036,0.7249,1.1129,-0.3658,-5.9294,6.5577,2.1974,-0.005,1.026,0.1794,-8.5753,-2.0322,-0.2514,-0.456813,0,1698373575.6257,55
0.0172,0.7663,-0.3892,-0.0875,-2.578,-0.679,0.0671,-1.3473,8.4929,0.8808,0.6403,1.0388,-0.3681,-5.8869,6.5805,2.128,0.0252,0.9799,0.1516,-8.6086,-1.9936,-0.268,-0.479636,0,1698373575.6354,56
0.0252,0.7361,-0.3879,-0.0149,-2.4257,-0.7581,0.2929,-1.4071,8.2697,0.8603,0.5302,0.9736,-0.3844,-5.887,6.6075,2.0557,0.0614,0.876,0.1045,-8.6419,-1.9862,-0.2648,-0.488854,0,1698373575.6455,57
0.0326,0.7087,-0.3852,0.0941,-2.4394,-0.8485,0.5297,-1.4476,8.1388,0.8523,0.4124,0.9161,-0.4107,-5.9362,6.6323,1.9957,0.1048,0.6973,0.0219,-8.687,-2.0159,-0.2661,-0.491954,0,1698373575.6556,58
0.0391,0.6768,-0.3805,0.2041,-2.4024,-0.9614,0.775,-1.4783,8.043,0.7678,0.3276,0.8373,-0.4405,-6.0418,6.6496,1.9497,0.1471,0.4494,-0.1121,-8.7435,-2.0711,-0.2585,-0.49143,0,1698373575.6657,59
0.0445,0.6303,-0.374,0.316,-2.0584,-0.9587,0.9928,-1.605,7.912,0.8965,0.3291,0.6969,-0.4739,-6.2251,6.6642,1.9305,0.1808,0.1538,-0.3014,-8.8028,-2.1487,-0.2318,-0.474741,0,1698373575.6764,59
0.0488,0.55,-0.3657,0.4303,-1.5244,-1.1262,1.1492,-1.8309,7.749,1.1868,0.4402,0.4839,-0.516,-6.4584,6.6873,1.9598,0.2129,-0.144,-0.5286,-8.8551,-2.2608,-0.234,-0.458628,0,1698373575.6854,60
0.0521,0.4861,-0.3568,0.5165,-1.1625,-1.5239,1.2383,-1.9294,7.6338,1.5106,0.6382,0.2119,-0.5615,-6.715,6.7249,2.0295,0.2549,-0.3719,-0.7596,-8.917,-2.3842,-0.2729,-0.487061,0,1698373575.6956,61
0.0554,0.4595,-0.3486,0.5399,-1.0015,-1.8004,1.2351,-1.8685,7.9806,1.6079,0.8882,-0.099,-0.5994,-6.9474,6.7617,2.1096,0.3071,-0.4893,-0.9646,-9.0034,-2.5017,-0.3128,-0.542344,0,1698373575.7061,62
0.059,0.4387,-0.3428,0.4997,-0.8271,-1.8924,1.1439,-1.6347,8.4756,1.4814,1.1267,-0.4002,-0.6177,-7.0964,6.8253,2.1881,0.3715,-0.5208,-1.1221,-9.1293,-2.5984,-0.3477,-0.582511,0,1698373575.7155,63
0.0625,0.4074,-0.3395,0.4318,-0.5953,-1.9026,1.0143,-1.3111,8.7509,1.4155,1.306,-0.6589,-0.632,-7.1915,6.9228,2.2646,0.4727,-0.4933,-1.2274,-9.2602,-2.6523,-0.3687,-0.593785,0,1698373575.7254,63
0.065,0.3632,-0.3381,0.3476,-0.3249,-1.9718,0.8736,-1.1031,9.0653,1.3376,1.3916,-0.87,-0.6593,-7.2205,7.0065,2.3162,0.622,-0.4404,-1.2895,-9.3862,-2.6632,-0.3385,-0.593674,0,1698373575.7356,64
0.0662,0.2946,-0.3378,0.2934,-0.0808,-1.9983,0.7396,-0.9747,9.3675,1.1014,1.3507,-1.005,-0.6915,-7.1596,7.091,2.3478,0.7789,-0.4232,-1.3174,-9.5356,-2.6404,-0.2755,-0.572782,0,1698373575.7458,65
0.0664,0.2212,-0.338,0.2446,0.079,-1.9491,0.6151,-0.9118,9.5103,0.8622,1.1775,-1.0733,-0.7217,-7.0624,7.2171,2.3859,0.9059,-0.5061,-1.322,-9.7362,-2.6093,-0.2281,-0.47181,0,1698373575.7558,66
0.0664,0.1718,-0.3381,0.1816,0.1588,-1.8537,0.4774,-0.8916,9.6896,0.7808,0.8972,-1.1101,-0.7212,-7.047,7.4046,2.4161,1.0079,-0.7469,-1.3298,-10.0296,-2.6376,-0.2413,-0.335525,0,1698373575.7655,67
0.0664,0.1378,-0.3382,0.1384,0.3128,-1.7566,0.3262,-0.8847,9.849,0.8133,0.6198,-1.171,-0.6655,-7.1842,7.6167,2.4516,1.1246,-1.1181,-1.3691,-10.3609,-2.7525,-0.3109,-0.231768,0,1698373575.7752,67
0.0663,0.0992,-0.3382,0.1193,0.4835,-1.6292,0.1431,-0.8243,10.1716,0.9581,0.447,-1.2934,-0.5617,-7.4329,7.7791,2.5018,1.2826,-1.4873,-1.4406,-10.6057,-2.9279,-0.3909,-0.154666,0,1698373575.7863,68
0.066,0.0455,-0.338,0.1007,0.6494,-1.4467,-0.0596,-0.7546,10.5916,1.2185,0.3409,-1.4651,-0.4462,-7.729,7.8379,2.5518,1.4241,-1.7016,-1.5157,-10.7109,-3.1237,-0.476,-0.045647,0,1698373575.7954,69
0.0656,0.0065,-0.3371,0.1228,0.8754,-1.2445,-0.2758,-0.6995,10.8593,1.5345,0.204,-1.6275,-0.3641,-8.0098,7.7852,2.6043,1.4488,-1.6934,-1.5467,-10.7351,-3.3036,-0.5665,0.119722,0,1698373575.8057,70
0.0653,-0.0241,-0.3343,0.2013,0.8481,-0.8786,-0.477,-0.4249,11.0665,1.7681,-0.0158,-1.7101,-0.3251,-8.2565,7.7221,2.6638,1.3393,-1.5413,-1.5052,-10.7964,-3.4796,-0.676,0.29198,0,1698373575.8157,71
0.0636,-0.0799,-0.3297,0.2915,0.9436,-0.5271,-0.652,0.0105,11.0702,2.4753,-0.2452,-1.7172,-0.293,-8.4825,7.714,2.6576,1.1997,-1.349,-1.404,-10.9303,-3.6019,-0.8183,0.441357,0,1698373575.826,72
0.0593,-0.1803,-0.3247,0.3517,0.9436,-0.5271,-0.652,0.0105,11.0702,2.4753,-0.2452,-1.7172,-0.293,-8.4825,7.714,2.6576,1.1997,-1.349,-1.404,-10.9303,-3.6019,-0.8183,0.559203,0,1698373575.8363,72
0.0518,-0.3216,-0.3199,0.3628,1.2939,-0.2021,-0.7565,0.211,10.8483,3.3731,-0.3766,-1.7423,-0.2537,-8.6638,7.6994,2.5375,1.1006,-1.1145,-1.2546,-11.0314,-3.659,-0.9659,0.652808,0,1698373575.8474,73
0.0397,-0.5616,-0.3156,0.3543,1.7674,0.2684,-0.7578,0.1188,10.5693,3.7812,-0.4266,-1.9,-0.2692,-8.7663,7.3421,2.0541,0.859,-0.4443,-0.8374,-10.9367,-3.6132,-1.2471,0.728587,0,1698373575.8598,74
0.0216,-0.8736,-0.3122,0.3303,1.9261,0.3476,-0.6946,-0.2798,10.757,3.614,-0.3675,-1.8519,-0.3297,-8.7219,7.0807,1.7885,0.7499,-0.0249,-0.5879,-10.7215,-3.5657,-1.354,0.788147,0,1698373575.8699,75
0.0009,-1.1172,-0.3092,0.3175,1.9608,0.3691,-0.591,-0.6399,10.9071,3.3862,-0.1946,-1.7166,-0.3938,-8.5888,6.748,1.5533,0.7317,0.416,-0.3429,-10.3507,-3.5608,-1.4342,0.828777,0,1698373575.8797,76
-0.0206,-1.294,-0.3046,0.366,1.9459,0.2869,-0.467,-1.0393,10.8213,3.1444,0.0786,-1.5348,-0.4725,-8.3807,6.3357,1.3644,0.8291,0.8445,-0.1015,-9.8224,-3.5923,-1.5013,0.85339,0,1698373575.8897,76
-0.0443,-1.5016,-0.2966,0.504,1.6024,-0.0335,-0.186,-1.1717,10.2629,2.6199,0.6847,-1.2204,-0.7842,-7.9694,5.4509,1.164,1.1147,1.3716,0.3409,-8.7144,-3.7703,-1.5863,0.876535,0,1698373575.9034,77
-0.0741,-1.7722,-0.2819,0.6827,1.296,-0.232,-0.0383,-1.0204,10.0518,2.6058,0.8962,-1.1758,-0.9522,-7.8544,5.0922,1.1412,1.6251,1.3754,0.4689,-8.316,-3.8692,-1.6501,0.902254,0,1698373575.9152,78
-0.106,-1.9216,-0.2638,0.8798,0.9805,-0.4109,0.0662,-0.9837,10.1853,2.547,1.0281,-1.2306,-1.0546,-7.7947,4.8178,1.1633,2.1043,1.1943,0.5018,-8.0405,-3.9641,-1.746,0.924069,0,1698373575.9248,79
-0.1317,-2.0188,-0.2481,1.0573,0.8769,-0.6513,0.0588,-1.0477,10.3575,2.4685,1.1016,-1.4121,-1.0633,-7.7711,4.6186,1.2385,2.5779,0.8431,0.4157,-7.8743,-4.0526,-1.8372,0.941022,0,1698373575.9357,80
-0.1546,-2.0975,-0.234,1.1081,0.7504,-0.8533,-0.0714,-0.9797,10.1779,2.5724,1.1382,-1.6928,-0.9832,-7.788,4.4922,1.3703,3.0446,0.4195,0.2372,-7.7902,-4.1183,-1.8982,0.95419,0,1698373575.9458,80
-0.1763,-2.0977,-0.2218,1.0877,0.4187,-1.0537,-0.2893,-0.7813,10.2718,2.7258,1.1744,-2.0276,-0.8451,-7.8568,4.4617,1.538,3.4403,0.0019,0.0167,-7.8173,-4.155,-1.9117,0.964417,0,1698373575.9557,81
-0.1973,-2.1164,-0.2118,1.0609,0.2402,-1.2938,-0.5122,-0.6338,10.5543,2.7809,1.2058,-2.3848,-0.6885,-7.981,4.5849,1.7409,3.6812,-0.3421,-0.2065,-7.9955,-4.1508,-1.8951,0.972361,0,1698373575.9658,82
-0.2194,-2.1621,-0.2022,1.0655,0.1093,-1.4512,-0.6274,-0.3902,10.7055,2.7001,1.2081,-2.6938,-0.5276,-8.1007,4.8584,1.9261,3.7644,-0.5378,-0.4028,-8.2667,-4.1126,-1.8593,0.97853,0,1698373575.9756,83
-0.2419,-2.1726,-0.1924,1.0608,-0.081,-1.5539,-0.635,-0.0775,10.8454,2.5893,1.192,-2.8639,-0.377,-8.1384,5.1983,2.0602,3.7702,-0.5363,-0.5511,-8.5354,-4.0522,-1.7884,0.983321,0,1698373575.9853,84
-0.2636,-2.1434,-0.1828,1.0632,-0.228,-1.6737,-0.5617,0.1563,10.728,2.6181,1.1778,-2.8707,-0.2806,-8.087,5.5064,2.153,3.7295,-0.3247,-0.6245,-8.7545,-3.9553,-1.6911,0.987042,0,1698373575.9945,85
-0.2836,-2.0792,-0.1732,1.1149,-0.4214,-1.6645,-0.4213,0.459,10.4486,2.663,1.1514,-2.761,-0.2823,-7.9572,5.7369,2.2231,3.6366,0.0425,-0.5904,-8.9231,-3.8057,-1.5578,0.989933,0,1698373576.004,85
-0.3023,-2.0283,-0.163,1.1032,-0.477,-1.5969,-0.2031,0.6836,10.0999,2.666,1.0849,-2.559,-0.3749,-7.7925,5.8807,2.2758,3.5132,0.4802,-0.436,-9.0477,-3.643,-1.415,0.99218,0,1698373576.0139,86
-0.32,-2.0189,-0.1521,1.0481,-0.4418,-1.5017,0.0891,0.8143,9.8469,2.663,1.0008,-2.2743,-0.5013,-7.617,5.925,2.2824,3.3655,0.9285,-0.196,-9.1062,-3.5014,-1.2961,0.993926,0,1698373576.0239,87
-0.3358,-1.9323,-0.1411,1.0371,-0.3267,-1.3358,0.4498,0.8428,9.5865,2.6575,0.9577,-1.9518,-0.6106,-7.4249,5.8672,2.2395,3.1944,1.3508,0.0749,-9.0851,-3.3882,-1.1949,0.995282,0,1698373576.0338,88
-0.3497,-1.8289,-0.1303,1.0311,-0.2424,-1.1166,0.8382,0.7525,9.1784,2.6094,1.0077,-1.6374,-0.6895,-7.231,5.7376,2.1765,2.9977,1.7257,0.338,-8.946,-3.3152,-1.105,0.996335,0,1698373576.0438,89
-0.3618,-1.7318,-0.1197,1.0463,-0.2068,-0.8526,1.2089,0.6636,8.9764,2.5573,1.142,-1.365,-0.7312,-7.0579,5.5527,2.1318,2.7503,2.0501,0.5791,-8.6996,-3.2645,-1.036,0.997153,0,1698373576.0539,89
-0.3725,-1.5991,-0.1093,1.0627,-0.122,-0.587,1.5838,0.536,8.6984,2.5593,1.3281,-1.1662,-0.7465,-6.9152,5.3407,2.1292,2.4899,2.3327,0.7834,-8.4194,-3.2162,-1.0103,0.997788,0,1698373576.0638,90
-0.3822,-1.4541,-0.0992,1.0538,-0.0664,-0.3355,1.9261,0.4129,8.5592,2.5425,1.5443,-1.0476,-0.744,-6.7875,5.1341,2.172,2.2681,2.5531,0.9395,-8.1304,-3.1806,-1.0322,0.998282,0,1698373576.074,91
-0.3914,-1.3552,-0.0896,1.0213,-0.0223,-0.1385,2.2107,0.3373,8.5489,2.5003,1.7761,-0.9836,-0.7121,-6.6518,4.9637,2.2096,2.0958,2.7005,1.048,-7.8642,-3.1545,-1.0613,0.998663,0,1698373576.084,92
-0.4001,-1.2606,-0.0804,0.9559,0.0059,0.0102,2.4224,0.2491,8.4909,2.4375,2.0106,-0.9578,-0.6602,-6.4856,4.8645,2.2166,1.9415,2.8038,1.1178,-7.6484,-3.0912,-1.094,0.998955,0,1698373576.0937,93
-0.4081,-1.169,-0.072,0.8821,-0.0232,0.1505,2.5477,0.2157,8.4371,2.3677,2.2159,-0.9514,-0.5925,-6.2769,4.8454,2.229,1.7569,2.8654,1.1643,-7.5067,-2.9964,-1.128,0.999179,0,1698373576.1042,93
-0.4157,-1.0854,-0.0643,0.8196,-0.0774,0.2467,2.5921,0.2079,8.496,2.2212,2.3403,-0.9387,-0.5187,-6.0694,4.8905,2.2677,1.5215,2.897,1.1987,-7.4172,-2.8837,-1.1509,0.999321,0,1698373576.1136,94
-0.4228,-0.9856,-0.0574,0.7808,-0.163,0.3444,2.5491,0.2056,8.6201,2.0358,2.3663,-0.8947,-0.446,-5.8895,4.9562,2.3288,1.2398,2.8883,1.2238,-7.3905,-2.7651,-1.1502,0.998799,0,1698373576.1238,95
-0.4289,-0.8957,-0.0512,0.7506,-0.2976,0.4603,2.4338,0.2631,8.6376,1.9175,2.2833,-0.7814,-0.3673,-5.7374,5.0399,2.3875,0.9162,2.8261,1.227,-7.4317,-2.6755,-1.1268,0.987659,0,1698373576.1336,96
-0.4343,-0.807,-0.0456,0.7282,-0.3996,0.5094,2.3034,0.2121,8.6681,1.8202,2.103,-0.5911,-0.2824,-5.6447,5.1311,2.4395,0.5779,2.7123,1.21,-7.4929,-2.6152,-1.104,0.843624,0,1698373576.1429,97
-0.4385,-0.707,-0.0404,0.6766,-0.4567,0.4982,2.1723,0.1714,8.8673,1.6209,1.8743,-0.3554,-0.2036,-5.6302,5.2089,2.4946,0.2836,2.5326,1.1848,-7.5869,-2.6044,-1.0676,0.556311,0,1698373576.1529,98
-0.4416,-0.6064,-0.0356,0.6334,-0.5096,0.4554,1.8924,0.3382,9.2613,1.3635,1.602,-0.123,-0.1476,-5.702,5.2749,2.5879,0.0397,2.3062,1.1465,-7.665,-2.6434,-1.0342,0.302661,0,1698373576.1634,98
-0.4432,-0.5,-0.0304,0.6265,-0.4952,0.4153,1.4772,0.4268,9.4043,1.2269,1.2815,0.0771,-0.1109,-5.8463,5.3294,2.7197,-0.1677,2.0519,1.0886,-7.7422,-2.718,-1.0222,0.163762,0,1698373576.1731,99
-0.4435,-0.384,-0.0246,0.6077,-0.4526,0.3986,1.0678,0.362,9.2858,1.14,0.9567,0.247,-0.0823,-6.034,5.3915,2.8464,-0.3296,1.7887,1.0147,-7.8543,-2.8372,-1.0003,0.113621,0,1698373576.1837,0
-0.4433,-0.2926,-0.0183,0.5754,-0.5524,0.4172,0.6706,0.384,9.2415,1.0127,0.672,0.3927,-0.0491,-6.2316,5.4499,2.9649,-0.4417,1.5477,0.9368,-7.9623,-3.0006,-0.9641,0.131142,0,1698373576.1939,1
-0.4431,-0.2169,-0.0118,0.5685,-0.7245,0.4325,0.3084,0.4178,9.2409,0.9237,0.4373,0.5177,-0.0003,-6.4041,5.4803,3.0641,-0.4939,1.3375,0.8618,-8.0766,-3.1764,-0.9247,0.220752,0,1698373576.2042,2
-0.4426,-0.144,-0.0051,0.5838,-0.8897,0.4112,-0.013,0.4156,9.2823,0.8976,0.2711,0.6234,0.0547,-6.5349,5.4766,3.1377,-0.4747,1.1478,0.7925,-8.16,-3.3349,-0.8826,0.292731,0,1698373576.214,2
-0.4415,-0.0747,0.0015,0.6107,-0.9831,0.3699,-0.2712,0.3969,9.1279,0.8417,0.1617,0.702,0.1076,-6.6282,5.4711,3.185,-0.3943,0.9664,0.7335,-8.1775,-3.4882,-0.8507,0.297039,0,1698373576.2239,3
-0.4384,0.0428,0.0082,0.6628,-1.2226,0.4171,-0.5305,0.5298,8.6143,0.831,0.0605,0.7529,0.1564,-6.6982,5.4713,3.2102,-0.2525,0.7683,0.6801,-8.1753,-3.6118,-0.8276,0.256055,0,1698373576.2344,4
-0.4325,0.2082,0.0152,0.6926,-1.5885,0.4733,-0.8163,0.794,8.5016,0.7769,-0.0531,0.7711,0.1968,-6.7524,5.4411,3.2151,-0.0699,0.5353,0.6198,-8.1744,-3.6832,-0.8162,0.168154,0,1698373576.2441,5
-0.4232,0.4217,0.0221,0.6945,-1.646,0.4045,-1.0681,0.8209,8.4801,0.7694,-0.1839,0.7648,0.235,-6.7915,5.3946,3.1941,0.1008,0.2528,0.5517,-8.1959,-3.7176,-0.8307,0.06589,0,1698373576.2537,6
-0.4112,0.6947,0.0297,0.7353,-1.4623,0.3579,-1.2603,0.7395,8.0438,0.8365,-0.3349,0.73,0.2741,-6.8398,5.3566,3.1609,0.1985,-0.0875,0.4852,-8.2677,-3.7194,-0.8644,-0.009597,0,1698373576.2642,6
-0.3962,0.9548,0.0383,0.7645,-1.087,0.4009,-1.3789,0.7529,7.6199,0.9547,-0.4786,0.6426,0.3249,-6.9085,5.349,3.1378,0.1747,-0.4457,0.4241,-8.4103,-3.6928,-0.8981,0.021373,0,1698373576.2745,7
-0.3791,1.1714,0.0479,0.7745,-0.5952,0.4838,-1.4514,0.7829,7.2089,1.3119,-0.6201,0.5039,0.4146,-6.9852,5.3835,3.1516,0.0182,-0.7716,0.3562,-8.6143,-3.6432,-0.9004,0.170076,0,1698373576.2839,8
-0.3628,1.3067,0.0582,0.8165,-0.4697,0.618,-1.4975,0.9186,7.1847,1.6412,-0.7555,0.3433,0.5551,-7.0555,5.4388,3.195,-0.2602,-1.0434,0.2796,-8.8102,-3.5914,-0.8485,0.326977,0,1698373576.2937,9
-0.3481,1.3844,0.0687,0.8419,-0.3952,1.0197,-1.4754,1.0963,7.6598,1.8384,-0.8582,0.1948,0.7264,-7.1124,5.4987,3.2388,-0.6205,-1.2435,0.2159,-8.9755,-3.5533,-0.7823,0.43343,0,1698373576.3039,10
-0.335,1.3664,0.0783,0.8413,-0.0749,1.2848,-1.4036,1.1188,8.371,1.9873,-0.9038,0.0691,0.9054,-7.1556,5.5807,3.2766,-0.983,-1.3691,0.1826,-9.1161,-3.5458,-0.7394,0.502031,0,1698373576.3139,10
-0.3253,1.2116,0.0864,0.8193,0.6127,1.0664,-1.2814,0.9147,8.1998,2.3989,-0.8813,-0.0114,1.0828,-7.1817,5.6987,3.2942,-1.2867,-1.4224,0.1822,-9.1968,-3.5387,-0.7162,0.551478,0,1698373576.3244,11
-0.3211,0.9687,0.0928,0.7355,1.1963,0.8677,-1.0826,0.6108,7.7467,2.9631,-0.8272,-0.016,1.2343,-7.1974,5.813,3.2932,-1.5021,-1.433,0.2127,-9.2289,-3.5591,-0.6859,0.609834,0,1698373576.3347,12
-0.3216,0.6919,0.097,0.6218,1.2252,0.9273,-0.8778,0.5912,8.3513,2.951,-0.832,0.0512,1.3443,-7.2224,5.9267,3.3098,-1.6201,-1.4345,0.2687,-9.2128,-3.6238,-0.668,0.671316,0,1698373576.3446,13
-0.324,0.4641,0.099,0.5089,1.1965,1.1406,-0.6677,0.6615,8.9487,2.4912,-0.9252,0.1451,1.4109,-7.2848,6.0238,3.3699,-1.6622,-1.4323,0.3327,-9.1577,-3.7041,-0.6704,0.704546,0,1698373576.3542,14
-0.3268,0.2833,0.0994,0.3817,1.129,1.4,-0.4465,0.6598,9.1858,1.9892,-1.065,0.2087,1.4337,-7.3769,6.0739,3.4586,-1.6583,-1.4373,0.3866,-9.1208,-3.791,-0.675,0.680927,0,1698373576.3638,15
-0.33,0.112,0.0994,0.2901,1.0408,1.6799,-0.2397,0.7669,9.4788,1.525,-1.2443,0.2146,1.4318,-7.4864,6.1151,3.5487,-1.6536,-1.4864,0.4183,-9.1416,-3.8556,-0.6849,0.570764,0,1698373576.374,15
-0.3336,-0.0159,0.0994,0.2369,0.9715,1.992,-0.0502,0.9381,9.7525,1.1383,-1.4764,0.1527,1.4372,-7.6198,6.1908,3.6424,-1.6755,-1.6234,0.413,-9.2607,-3.9303,-0.7129,0.391524,0,1698373576.3842,16
-0.3371,-0.0768,0.0994,0.1695,0.9841,2.2709,0.132,1.087,9.9216,0.8937,-1.7896,0.0143,1.484,-7.7606,6.3409,3.7496,-1.7164,-1.8406,0.3596,-9.4847,-3.9894,-0.7644,0.206609,0,1698373576.3941,17
-0.3401,-0.1014,0.0995,0.1175,1.0126,2.5038,0.2803,1.16,10.0508,0.792,-2.142,-0.1409,1.6055,-7.8753,6.5628,3.8359,-1.772,-2.0996,0.2643,-9.7762,-3.9942,-0.8094,0.131038,0,1698373576.4048,18
-0.3423,-0.1095,0.0996,0.0924,0.9905,2.7171,0.3904,1.1747,10.2995,0.7442,-2.5282,-0.2623,1.7911,-7.9906,6.8175,3.8649,-1.8757,-2.3656,0.1443,-10.1067,-3.9637,-0.8393,0.234884,0,1698373576.4145,19
-0.3425,-0.0815,0.0995,0.0559,0.9051,2.7882,0.4938,0.98,11.2105,0.5724,-2.9364,-0.337,2.0102,-8.0721,7.0993,3.8375,-2.0499,-2.6037,0.023,-10.4732,-3.9266,-0.8625,0.405524,0,1698373576.4234,19
-0.3405,-0.0026,0.0993,0.0225,0.8865,2.8084,0.5937,0.5811,12.2194,0.3601,-3.2841,-0.3695,2.2094,-8.1549,7.4104,3.7994,-2.2646,-2.763,-0.0831,-10.8068,-3.8847,-0.9097,0.538253,0,1698373576.4339,20
-0.3367,0.1238,0.0989,0.0094,0.9862,2.8727,0.6509,0.1485,12.4714,0.5085,-3.5329,-0.3606,2.3386,-8.2938,7.6661,3.758,-2.4833,-2.8374,-0.1656,-11.0678,-3.8674,-0.9728,0.641347,0,1698373576.4434,21
-0.3313,0.2671,0.0986,-0.0078,1.0458,2.8622,0.6953,-0.3029,12.2245,1.092,-3.6623,-0.2966,2.3835,-8.4565,7.8236,3.6657,-2.6872,-2.85,-0.2186,-11.2464,-3.8796,-1.0587,0.721424,0,1698373576.4527,22
-0.3254,0.3539,0.0973,-0.0633,1.3529,2.6282,0.7784,-0.9409,11.8414,1.8395,-3.6315,-0.2,2.3289,-8.6449,7.8845,3.5007,-2.8618,-2.7788,-0.2282,-11.3087,-3.8742,-1.2104,0.783622,0,1698373576.4628,23
-0.3207,0.3565,0.0933,-0.1647,1.7567,2.3433,0.9341,-1.6088,11.5243,2.3591,-3.4031,-0.0696,2.18,-8.8227,7.8292,3.2836,-2.9667,-2.5932,-0.1879,-11.2569,-3.8541,-1.3801,0.831932,0,1698373576.4732,23
-0.3182,0.2894,0.086,-0.2942,1.8769,2.2336,1.1675,-1.7764,11.4042,2.6772,-3.0271,0.1331,1.9484,-8.9125,7.6846,3.0337,-2.9613,-2.2819,-0.1064,-11.0432,-3.7985,-1.5394,0.869457,0,1698373576.483,24
-0.318,0.229,0.0751,-0.4596,2.0879,2.1178,1.3786,-1.4279,11.4282,3.0042,-2.5646,0.4311,1.6518,-8.8737,7.4649,2.7517,-2.8566,-1.8553,0.0183,-10.6797,-3.658,-1.6733,0.898603,0,1698373576.4929,25
-0.3179,0.2071,0.0604,-0.6768,2.3847,1.9221,1.5085,-0.9816,10.7939,3.5129,-2.092,0.799,1.3064,-8.6968,7.2073,2.5142,-2.6951,-1.3449,0.1706,-10.2407,-3.4494,-1.7506,0.921242,0,1698373576.5031,26
-0.315,0.2709,0.0424,-0.9509,1.85,1.9218,1.5097,-0.3805,9.8167,3.8869,-1.7062,1.2287,0.9699,-8.3382,6.9667,2.3067,-2.5237,-0.7764,0.3383,-9.749,-3.1664,-1.7874,0.938399,0,1698373576.5137,27
-0.3075,0.414,0.0202,-1.2453,1.0435,2.0708,1.4024,0.2037,9.6601,3.8813,-1.4552,1.7099,0.7051,-7.831,6.7546,2.0878,-2.4305,-0.218,0.5162,-9.288,-2.7845,-1.8034,0.94316,0,1698373576.5242,27
-0.2952,0.6258,-0.0046,-1.5442,0.9403,2.1234,1.2211,0.3696,9.6063,3.8588,-1.3701,2.1655,0.5225,-7.2682,6.5953,1.9143,-2.5031,0.2106,0.6885,-8.9735,-2.3479,-1.7963,0.946769,0,1698373576.5339,28
-0.2811,0.825,-0.0303,-1.8607,1.1644,2.079,0.9771,0.2791,9.3069,3.9019,-1.4224,2.5023,0.4156,-6.733,6.5177,1.7489,-2.7572,0.4199,0.8343,-8.8112,-1.9106,-1.7561,0.958126,0,1698373576.544,29
-0.267,0.9517,-0.0563,-2.0909,1.0321,2.226,0.6037,-0.0077,9.4188,3.799,-1.7928,2.6446,0.4539,-5.8846,6.6053,1.3929,-3.4239,0.0399,0.8731,-8.7626,-1.2763,-1.5423,0.96745,0,1698373576.5679,30
-0.2464,1.035,-0.0974,-2.1983,0.6826,2.3462,0.5334,-0.0666,9.7033,3.5596,-2.0908,2.5736,0.6043,-5.6409,6.6816,1.2321,-3.6002,-0.4251,0.734,-8.7995,-1.1091,-1.4246,0.97366,0,1698373576.5775,31
-0.2281,1.0193,-0.1381,-2.2468,0.4419,2.316,0.5205,-0.307,9.6634,3.4763,-2.422,2.4751,0.7748,-5.6048,6.7248,1.107,-3.6775,-0.9567,0.5202,-8.8934,-1.1029,-1.3377,0.974958,0,1698373576.5874,31
-0.2192,0.967,-0.1627,-2.3037,0.1057,2.2823,0.4858,-0.7035,9.7192,3.2376,-2.7533,2.3457,0.8979,-5.7822,6.7472,1.0595,-3.7,-1.4565,0.2758,-9.0198,-1.3061,-1.3018,0.971516,0,1698373576.5974,32
-0.2108,0.9583,-0.1868,-2.3091,-0.2985,2.2937,0.4188,-1.0786,9.9081,2.9525,-3.0192,2.1949,0.9356,-6.12,6.7533,1.099,-3.6502,-1.832,0.0356,-9.0856,-1.6515,-1.2944,0.961727,0,1698373576.6084,33
-0.2022,0.9538,-0.2098,-2.2398,-0.5878,2.2283,0.3429,-1.4856,9.9104,2.788,-3.1141,2.0616,0.8796,-6.5561,6.7236,1.1973,-3.4947,-2.0009,-0.1654,-9.0672,-2.0566,-1.3018,0.924513,0,1698373576.6174,34
-0.1932,0.9423,-0.2314,-2.1761,-0.8159,2.0361,0.2404,-1.9729,9.8863,2.5669,-2.9799,1.9947,0.7432,-7.0458,6.6297,1.355,-3.2334,-1.9233,-0.3053,-9.004,-2.4988,-1.3244,0.828849,0,1698373576.6273,35
-0.1841,0.9178,-0.2516,-2.0712,-0.9607,1.8297,0.1149,-2.3371,9.774,2.325,-2.6294,2.016,0.5478,-7.5326,6.487,1.5188,-2.8779,-1.6244,-0.3671,-8.9341,-2.8922,-1.3919,0.712506,0,1698373576.6372,35
-0.1748,0.9062,-0.2698,-1.9121,-1.0723,1.6149,-0.0807,-2.5036,9.8017,2.0263,-2.0708,2.0939,0.2904,-7.9564,6.3249,1.6424,-2.4023,-1.1605,-0.3393,-8.871,-3.1588,-1.4786,0.573617,0,1698373576.6479,36
-0.1649,0.9391,-0.2856,-1.7413,-0.7134,1.246,-0.322,-2.6152,9.669,1.8799,-1.3795,2.1561,-0.0238,-8.2235,6.1858,1.7295,-1.825,-0.6195,-0.2419,-8.796,-3.2718,-1.5082,0.40387,0,1698373576.6573,37
-0.1549,0.96,-0.2991,-1.6199,-0.2411,0.7814,-0.6058,-2.6832,9.3187,1.8351,-0.6824,2.1525,-0.365,-8.2586,6.0869,1.7317,-1.247,-0.1021,-0.1202,-8.7341,-3.2283,-1.4591,0.275324,0,1698373576.6672,38
-0.1451,0.976,-0.3105,-1.4989,-0.083,0.3371,-0.931,-2.6472,9.1468,1.7723,-0.0804,2.0653,-0.7058,-8.0729,6.024,1.703,-0.7589,0.3236,-0.0162,-8.6955,-3.0654,-1.3407,0.194241,0,1698373576.6773,39
-0.1357,0.9746,-0.3198,-1.3379,0.0781,-0.1053,-1.251,-2.5124,9.101,1.7446,0.3778,1.8944,-1.0063,-7.7284,5.9799,1.7215,-0.4002,0.6432,0.0491,-8.6496,-2.8349,-1.19,0.131297,0,1698373576.6875,40
-0.1267,0.9638,-0.328,-1.2109,0.2655,-0.54,-1.5472,-2.2682,9.0473,1.7359,0.7098,1.6893,-1.2389,-7.3072,5.9721,1.737,-0.1728,0.8659,0.0684,-8.5768,-2.5763,-1.0534,0.081339,0,1698373576.6978,40
-0.1181,0.9722,-0.3357,-1.0893,0.3743,-0.9203,-1.8276,-1.9427,9.2113,1.6934,0.9447,1.5061,-1.388,-6.8827,5.9904,1.7434,-0.0302,1.0039,0.0586,-8.4964,-2.3481,-0.9248,0.051741,0,1698373576.7077,41
-0.1097,0.9418,-0.3432,-0.978,0.4052,-1.2429,-2.0581,-1.7292,9.4828,1.5695,1.1314,1.3561,-1.4502,-6.4926,6.0043,1.7877,0.061,1.0685,0.034,-8.4099,-2.1762,-0.7969,0.034801,0,1698373576.7188,42
-0.101,0.9192,-0.3508,-0.9105,0.4897,-1.5242,-2.2355,-1.6254,9.6517,1.4539,1.3216,1.2448,-1.4439,-6.1597,6.0197,1.8616,0.096,1.0743,-0.0013,-8.2984,-2.0569,-0.6957,0.039655,0,1698373576.7284,43
-0.0929,0.9247,-0.3574,-0.8372,0.7505,-1.7896,-2.3673,-1.5514,9.6642,1.4532,1.5281,1.1736,-1.3836,-5.9238,6.0164,1.9351,0.0968,1.0516,-0.0407,-8.1874,-1.9952,-0.6198,0.061957,0,1698373576.7378,44
-0.0857,0.8898,-0.3635,-0.7738,0.9403,-2.04,-2.4219,-1.5466,9.4561,1.5037,1.7201,1.1277,-1.307,-5.7828,6,1.9889,0.0693,1.0101,-0.0832,-8.0975,-1.9804,-0.5688,0.076997,0,1698373576.7475,44
-0.0784,0.8612,-0.3698,-0.717,0.763,-2.2064,-2.4405,-1.4482,9.3517,1.486,1.8598,1.0912,-1.2457,-5.7072,5.9773,2.0246,0.0198,0.9591,-0.1341,-8.0204,-1.9946,-0.5434,0.086117,0,1698373576.7576,45
-0.0716,0.8313,-0.3755,-0.6646,0.4659,-2.2726,-2.3953,-1.3529,9.3112,1.4087,1.9325,1.0432,-1.2041,-5.6975,5.9439,2.0454,-0.0391,0.9221,-0.1916,-7.9638,-2.0179,-0.5412,0.091695,0,1698373576.768,46
-0.0657,0.7777,-0.3808,-0.6508,0.1943,-2.301,-2.269,-1.3178,9.3479,1.3184,1.9234,0.983,-1.1667,-5.7329,5.915,2.045,-0.0866,0.8976,-0.243,-7.9545,-2.0429,-0.5503,0.070591,0,1698373576.7773,47
-0.0602,0.7303,-0.3861,-0.6354,0.0012,-2.3784,-2.084,-1.3708,9.3745,1.3289,1.8711,0.9217,-1.1351,-5.7837,5.9089,2.0254,-0.1004,0.8785,-0.2846,-7.9901,-2.0827,-0.5432,0.014095,0,1698373576.7871,48
-0.055,0.6852,-0.391,-0.5802,-0.1999,-2.4113,-1.8431,-1.4857,9.1097,1.3791,1.8177,0.8656,-1.1029,-5.8453,5.9242,1.9957,-0.0924,0.8654,-0.3161,-8.045,-2.1345,-0.52,-0.041843,0,1698373576.798,48
-0.0505,0.6168,-0.3948,-0.5101,-0.4627,-2.407,-1.5581,-1.4907,8.9407,1.3529,1.7712,0.8322,-1.0659,-5.9153,5.9575,1.9714,-0.0743,0.8697,-0.3406,-8.1285,-2.1984,-0.494,-0.083133,0,1698373576.8077,49
-0.0468,0.5545,-0.3971,-0.4365,-0.7622,-2.3951,-1.2557,-1.4792,8.9634,1.2914,1.7597,0.8344,-1.0355,-5.993,6.0025,1.9671,-0.0193,0.8936,-0.3588,-8.2279,-2.2754,-0.4655,-0.119105,0,1698373576.8174,50
-0.043,0.5475,-0.3984,-0.3567,-1.0647,-2.3604,-0.9688,-1.5009,8.97,1.247,1.7696,0.8583,-1.0068,-6.0653,6.0565,1.9839,0.0822,0.9257,-0.3695,-8.3059,-2.3328,-0.4187,-0.153926,0,1698373576.828,51
-0.0386,0.5552,-0.3991,-0.2866,-1.3661,-2.2763,-0.7221,-1.4015,9.0898,1.1172,1.7832,0.8674,-0.9947,-6.1261,6.107,2.0023,0.1909,0.9856,-0.3641,-8.3801,-2.3701,-0.3635,-0.18823,1,1698373576.8381,52
-0.0339,0.5382,-0.3995,-0.221,-1.6148,-2.1428,-0.4922,-1.2634,9.1727,0.984,1.7997,0.8464,-1.0057,-6.1773,6.1612,2.0189,0.294,1.0722,-0.3429,-8.4438,-2.3919,-0.305,-0.221413,1,1698373576.8471,52
-0.0295,0.5042,-0.3994,-0.1663,-1.7772,-2.0408,-0.2616,-1.1901,9.1914,0.9703,1.7887,0.8199,-1.0254,-6.2136,6.2375,2.0426,0.3972,1.1633,-0.3137,-8.4891,-2.3936,-0.2671,-0.252398,1,1698373576.8574,53
-0.0253,0.4733,-0.3993,-0.1292,-1.9937,-1.8977,-0.0382,-1.054,9.2102,0.9108,1.7197,0.8052,-1.0415,-6.223,6.3294,2.0668,0.5054,1.2443,-0.2731,-8.5473,-2.3564,-0.2682,-0.281839,1,1698373576.8679,54
-0.0208,0.4716,-0.399,-0.1047,-2.1977,-1.7498,0.1763,-0.9291,9.1048,0.8496,1.5944,0.8126,-1.0464,-6.1991,6.4224,2.0798,0.621,1.2944,-0.2245,-8.6202,-2.2888,-0.2898,-0.308667,1,1698373576.8781,55
-0.0158,0.4876,-0.398,-0.0576,-2.3424,-1.6998,0.3556,-0.8975,9.0959,0.7465,1.4333,0.8345,-1.0425,-6.165,6.5083,2.0858,0.7406,1.3146,-0.1749,-8.6894,-2.2261,-0.3304,-0.332412,1,1698373576.8875,56
-0.0107,0.4952,-0.3952,0.0309,-2.3083,-1.7683,0.5725,-1.0058,9.1326,0.4585,1.2237,0.8447,-1.0343,-6.1404,6.5939,2.0836,0.8659,1.2996,-0.1397,-8.7574,-2.1763,-0.366,-0.351319,1,1698373576.8981,56
-0.0056,0.5048,-0.3906,0.1444,-2.2656,-1.6903,0.8457,-1.0907,8.979,0.1946,0.9689,0.833,-1.0263,-6.1486,6.6746,2.0714,0.9743,1.2359,-0.1396,-8.8248,-2.1526,-0.3813,-0.356042,1,1698373576.908,57
0.0002,0.5426,-0.3848,0.2697,-2.2683,-1.524,1.0793,-1.0135,8.779,0.1544,0.7267,0.7916,-1.0226,-6.2105,6.7389,2.0967,1.027,1.1311,-0.1762,-8.8941,-2.1332,-0.3787,-0.334062,1,1698373576.9174,58
0.0067,0.5963,-0.378,0.3795,-2.1374,-1.4528,1.2751,-1.0197,8.5261,0.2372,0.5505,0.7032,-1.0206,-6.3182,6.7956,2.1567,1.0193,0.9781,-0.255,-8.9644,-2.1199,-0.3968,-0.28421,1,1698373576.9278,59
0.0135,0.627,-0.3695,0.5127,-1.719,-1.4142,1.5321,-1.1706,8.2695,0.6607,0.4788,0.3546,-1.0118,-6.6382,6.8545,2.3021,0.9362,0.5795,-0.5394,-9.075,-2.1956,-0.4838,-0.2129,0,1698373576.9401,60
0.021,0.6232,-0.3598,0.6212,-1.719,-1.4142,1.5321,-1.1706,8.2695,0.6607,0.4788,0.3546,-1.0118,-6.6382,6.8545,2.3021,0.9362,0.5795,-0.5394,-9.075,-2.1956,-0.4838,-0.139833,0,1698373576.9498,60
0.0282,0.5979,-0.3512,0.6626,-1.2536,-1.3761,1.448,-1.0961,8.8452,0.9223,0.7598,-0.0417,-1.0258,-6.9022,6.7997,2.4052,0.8618,0.2865,-0.8603,-9.107,-2.3384,-0.595,-0.121141,0,1698373576.96,61
0.0337,0.5748,-0.3449,0.6457,-0.9922,-1.4009,1.3042,-1.1603,9.292,1.0467,0.9204,-0.2057,-1.0512,-6.9915,6.7692,2.4423,0.839,0.2181,-0.9959,-9.148,-2.433,-0.6102,-0.176544,0,1698373576.9702,62
0.0378,0.532,-0.3406,0.5764,-0.7738,-1.4058,1.1209,-1.1926,9.4751,1.0939,1.0435,-0.345,-1.0846,-7.0157,6.7766,2.4682,0.8136,0.194,-1.0995,-9.1948,-2.5052,-0.5803,-0.232666,0,1698373576.9797,63
0.0406,0.4568,-0.338,0.5044,-0.6323,-1.4189,0.8993,-1.0586,9.6816,1.0939,1.0914,-0.4481,-1.1267,-6.9851,6.8042,2.476,0.7701,0.1803,-1.1656,-9.2648,-2.5481,-0.5163,-0.265521,0,1698373576.99,64
0.0419,0.3836,-0.3368,0.4154,-0.2198,-1.5391,0.6641,-1.0401,9.9485,1.0544,1.0289,-0.5035,-1.1594,-6.9313,6.8562,2.4943,0.726,0.1365,-1.2049,-9.3887,-2.558,-0.4464,-0.302205,0,1698373576.9999,65
0.0421,0.3119,-0.3366,0.3221,0.1218,-1.623,0.4405,-1.119,10.0525,0.8361,0.8585,-0.5133,-1.1601,-6.861,6.9347,2.5134,0.7029,0.0343,-1.2252,-9.547,-2.5555,-0.3786,-0.339701,0,1698373577.0105,65
0.042,0.2392,-0.3367,0.2602,0.1434,-1.6098,0.2592,-1.1899,10.0217,0.4866,0.6222,-0.503,-1.1368,-6.8483,7.0372,2.5098,0.7054,-0.161,-1.2317,-9.7428,-2.5917,-0.3277,-0.308786,0,1698373577.0199,66
0.042,0.18,-0.3369,0.217,0.3026,-1.6379,0.0945,-1.342,10.0088,0.22,0.3628,-0.5222,-1.0888,-6.9793,7.1886,2.4989,0.7269,-0.4993,-1.2435,-10.0217,-2.6784,-0.3286,-0.212751,0,1698373577.0296,67
0.042,0.1275,-0.337,0.1755,0.5412,-1.698,-0.0846,-1.4959,10.0942,0.1893,0.1621,-0.6105,-1.0022,-7.2671,7.3977,2.5111,0.8033,-0.9683,-1.3131,-10.3689,-2.8425,-0.379,-0.132619,0,1698373577.04,68
0.042,0.0964,-0.3369,0.1374,0.6772,-1.726,-0.2782,-1.5666,10.419,0.2988,0.0966,-0.7787,-0.8667,-7.6302,7.6098,2.5454,0.9768,-1.4477,-1.4542,-10.659,-3.0833,-0.4553,-0.074248,0,1698373577.0498,69
0.042,0.0828,-0.3368,0.1057,0.7555,-1.7086,-0.4865,-1.5693,10.8955,0.456,0.1369,-0.998,-0.6984,-8.0116,7.7283,2.6022,1.2189,-1.7842,-1.62,-10.8124,-3.3238,-0.5244,-0.033588,0,1698373577.0607,69
0.0419,0.0638,-0.3364,0.0921,0.8845,-1.6584,-0.7268,-1.51,11.4851,0.7206,0.1503,-1.2357,-0.5438,-8.353,7.7206,2.6774,1.4394,-1.9143,-1.7479,-10.8631,-3.5445,-0.5591,-0.00658,0,1698373577.0709,70
0.0417,0.058,-0.3347,0.1097,0.7265,-1.5359,-0.9423,-1.295,11.5437,1.1033,0.021,-1.4365,-0.4484,-8.5992,7.6527,2.7545,1.5706,-1.9047,-1.7953,-10.8947,-3.7371,-0.5992,0.010929,0,1698373577.0812,71
0.0414,0.0425,-0.3309,0.1684,0.4878,-1.3384,-1.1396,-0.8054,11.3142,1.6072,-0.1996,-1.5482,-0.4033,-8.7311,7.6087,2.785,1.6469,-1.829,-1.7537,-10.9613,-3.8455,-0.6787,0.038789,0,1698373577.0913,72
0.0408,0.0067,-0.3265,0.2325,0.7047,-1.1467,-1.2885,-0.4529,11.4307,2.1186,-0.4162,-1.6212,-0.3649,-8.7646,7.5658,2.7097,1.6926,-1.6969,-1.6268,-11.033,-3.861,-0.7912,0.111377,0,1698373577.1014,73
0.0385,-0.0618,-0.3225,0.2701,1.0317,-0.8291,-1.3267,-0.3852,11.3096,2.4522,-0.6321,-1.6908,-0.318,-8.7428,7.4806,2.5332,1.6905,-1.4954,-1.431,-11.0847,-3.8118,-0.9161,0.255063,0,1698373577.1125,73
0.0337,-0.1819,-0.319,0.2664,1.2422,-0.4853,-1.3282,-0.3187,11.0912,2.6188,-0.8398,-1.7516,-0.279,-8.7021,7.3387,2.2958,1.6463,-1.2137,-1.1861,-11.0794,-3.7071,-1.0371,0.419416,0,1698373577.1236,74
0.0247,-0.3771,-0.3163,0.2369,1.3827,-0.2565,-1.2765,-0.3855,11.0178,2.7114,-0.9893,-1.7895,-0.259,-8.6547,7.1083,2.0355,1.5677,-0.8593,-0.903,-10.9567,-3.5638,-1.141,0.548235,0,1698373577.1342,75
0.0115,-0.6643,-0.3139,0.2392,1.5037,-0.0891,-1.1529,-0.66,10.9554,2.718,-1.0176,-1.7772,-0.2417,-8.551,6.7898,1.7815,1.4811,-0.4537,-0.5885,-10.663,-3.4436,-1.2176,0.648466,0,1698373577.1443,76
-0.0045,-0.9612,-0.311,0.2873,1.5713,-0.0178,-0.9827,-0.9386,10.8073,2.6227,-0.8793,-1.725,-0.2266,-8.3837,6.394,1.538,1.4155,-0.0237,-0.2752,-10.193,-3.4149,-1.2724,0.726386,0,1698373577.1544,77
-0.0231,-1.2497,-0.3064,0.3551,1.4994,-0.0545,-0.7747,-1.1719,10.5468,2.5698,-0.5973,-1.6563,-0.2387,-8.1663,5.9429,1.3245,1.4387,0.4016,0.0124,-9.6069,-3.4624,-1.3203,0.78725,0,1698373577.1642,77
-0.0438,-1.4766,-0.2988,0.4841,1.3089,-0.0907,-0.5262,-1.2446,10.0831,2.4728,-0.2461,-1.5936,-0.2916,-7.9172,5.4903,1.1581,1.5973,0.7822,0.2708,-8.9956,-3.5276,-1.3791,0.83473,0,1698373577.1736,78
-0.0656,-1.6884,-0.2884,0.6594,1.0996,-0.1554,-0.2633,-1.1004,9.7438,2.362,0.1085,-1.5577,-0.3769,-7.7289,5.0897,1.0193,1.8381,1.0539,0.4834,-8.4513,-3.5943,-1.4622,0.871629,0,1698373577.1841,79
-0.0893,-1.8956,-0.2768,0.7938,0.9745,-0.3395,-0.0105,-1.0287,9.4142,2.5113,0.4273,-1.5758,-0.4705,-7.6253,4.76,0.9253,2.1086,1.1474,0.6239,-8.021,-3.6568,-1.573,0.90029,0,1698373577.1941,80
-0.1137,-2.0299,-0.2653,0.8981,0.7726,-0.5149,0.1577,-0.9514,9.3496,2.6933,0.6921,-1.6632,-0.5415,-7.5642,4.5061,0.8951,2.3818,1.0513,0.6733,-7.7258,-3.7051,-1.6994,0.922552,0,1698373577.2041,81
-0.1369,-2.1528,-0.255,0.9569,0.5484,-0.6937,0.1784,-0.8983,9.6867,2.8243,0.8985,-1.8086,-0.5566,-7.5276,4.3444,0.9345,2.6614,0.8198,0.6299,-7.5527,-3.7402,-1.8187,0.939844,0,1698373577.2138,81
-0.159,-2.2425,-0.2463,0.9643,0.3137,-0.8922,0.0812,-0.9099,10.0984,2.841,1.0521,-2.0008,-0.5069,-7.511,4.2878,1.0455,2.9577,0.5241,0.5144,-7.5171,-3.7659,-1.8956,0.953275,0,1698373577.2242,82
-0.181,-2.2182,-0.2387,0.9268,0.0846,-1.0831,-0.0838,-0.8476,10.3199,2.7827,1.1407,-2.2217,-0.4121,-7.532,4.3627,1.2357,3.2135,0.2484,0.3743,-7.6297,-3.7617,-1.934,0.963707,0,1698373577.2345,83
-0.2037,-2.1661,-0.2309,0.8981,-0.0951,-1.2032,-0.2469,-0.6311,10.2869,2.7023,1.1737,-2.4247,-0.2882,-7.6175,4.5909,1.4639,3.3474,0.0633,0.2451,-7.8701,-3.7369,-1.9429,0.971809,0,1698373577.2454,84
-0.2273,-2.1712,-0.2227,0.8784,-0.3437,-1.2744,-0.3847,-0.2689,10.4107,2.541,1.1755,-2.6268,-0.1767,-7.703,4.9259,1.6823,3.35,-0.0021,0.138,-8.1996,-3.7042,-1.9047,0.9781,0,1698373577.2567,85
-0.2523,-2.1892,-0.2138,0.8388,-0.4909,-1.3765,-0.4713,0.0843,10.5366,2.5221,1.1752,-2.7045,-0.0636,-7.7442,5.2916,1.8591,3.2625,0.1243,0.1033,-8.541,-3.6286,-1.8063,0.982986,0,1698373577.2674,85
-0.2758,-2.1521,-0.2041,0.8346,-0.5438,-1.4303,-0.4456,0.3405,10.397,2.6125,1.1545,-2.5884,0.0234,-7.7554,5.6294,1.9791,3.0906,0.4091,0.1565,-8.8751,-3.5217,-1.682,0.986783,0,1698373577.2787,86
-0.297,-2.073,-0.1942,0.8339,-0.5601,-1.3808,-0.3311,0.4254,10.0811,2.6818,1.0796,-2.4028,0.0339,-7.729,5.887,2.0753,2.8131,0.7454,0.271,-9.1459,-3.3971,-1.5823,0.989733,0,1698373577.2895,87
-0.316,-1.9782,-0.184,0.8669,-0.32,-1.0814,0.1601,0.5163,9.7149,2.6531,0.9602,-1.8648,-0.0543,-7.5635,6.0323,2.1581,2.1201,1.3528,0.5671,-9.4019,-3.2619,-1.441,0.992025,0,1698373577.3006,88
-0.3324,-1.8152,-0.1738,0.9343,-0.1213,-0.8517,0.4862,0.5218,9.4906,2.6343,1.019,-1.5442,-0.1211,-7.4768,5.9284,2.1627,1.8241,1.5977,0.7161,-9.3113,-3.2781,-1.4052,0.993806,0,1698373577.3122,89
-0.3475,-1.6305,-0.1635,0.9457,0.0509,-0.5871,0.852,0.4748,9.1705,2.6119,1.1508,-1.2475,-0.1891,-7.413,5.7415,2.1649,1.5839,1.8382,0.8668,-9.102,-3.3032,-1.3809,0.995188,0,1698373577.3234,90
-0.3613,-1.4774,-0.1528,0.918,0.1762,-0.3024,1.2307,0.3736,9.0719,2.5139,1.3111,-1.0162,-0.2522,-7.3474,5.5256,2.175,1.4067,2.0829,1.0214,-8.8399,-3.3128,-1.3741,0.996254,0,1698373577.3344,90
-0.373,-1.3777,-0.1421,0.907,0.3067,-0.0438,1.5752,0.2399,8.981,2.3767,1.462,-0.851,-0.3004,-7.2697,5.3231,2.2023,1.2947,2.3123,1.1653,-8.5565,-3.3051,-1.3648,0.997059,0,1698373577.3458,91
-0.3836,-1.2959,-0.1319,0.91,0.3953,0.1665,1.87,0.0648,8.8624,2.2715,1.5912,-0.7508,-0.3096,-7.1347,5.165,2.2427,1.2477,2.4725,1.2787,-8.2786,-3.283,-1.3292,0.997664,0,1698373577.3629,92
-0.3962,-1.2084,-0.1184,0.9178,0.4266,0.3255,2.1032,-0.0833,8.8713,2.1506,1.7017,-0.7105,-0.2751,-6.9543,5.0754,2.2827,1.2257,2.5355,1.3549,-8.0611,-3.2298,-1.277,0.998122,0,1698373577.3737,93
-0.4075,-1.1177,-0.105,0.9444,0.4266,0.3255,2.1032,-0.0833,8.8713,2.1506,1.7017,-0.7105,-0.2751,-6.9543,5.0754,2.2827,1.2257,2.5355,1.3549,-8.0611,-3.2298,-1.277,0.998463,0,1698373577.384,94
-0.4156,-1.0129,-0.0947,0.9764,0.4289,0.4792,2.267,-0.0245,8.8615,1.8358,1.832,-0.7252,-0.1062,-6.4779,5.1397,2.3737,1.0252,2.2591,1.3384,-7.8997,-3.0366,-1.1249,0.99869,0,1698373577.3963,94
-0.4237,-0.9192,-0.084,0.9903,0.347,0.5011,2.2292,0.1021,8.8564,1.6982,1.8377,-0.6991,-0.0046,-6.28,5.2118,2.405,0.8952,2.0452,1.2939,-7.9061,-2.963,-1.0582,0.997342,0,1698373577.406,95
-0.4305,-0.8607,-0.074,0.9711,0.2681,0.4738,2.1207,0.1902,8.9829,1.6219,1.8003,-0.6456,0.0888,-6.1303,5.2852,2.4355,0.7619,1.8423,1.2415,-7.9174,-2.8821,-1.024,0.989968,0,1698373577.4158,96
-0.4358,-0.8253,-0.0648,0.9637,-0.0255,0.4351,1.8081,0.219,9.1815,1.4738,1.6029,-0.4573,0.2238,-5.9872,5.4176,2.5246,0.5337,1.4505,1.1262,-7.976,-2.7577,-0.9814,0.960625,0,1698373577.4259,97
-0.4405,-0.7581,-0.056,0.9733,-0.1994,0.4183,1.5873,0.2925,9.358,1.3772,1.4543,-0.3402,0.2705,-5.9617,5.4827,2.5826,0.4265,1.2748,1.0746,-7.9964,-2.7226,-0.9721,0.832842,0,1698373577.4357,98
-0.444,-0.6418,-0.0476,0.962,-0.3992,0.4376,1.3536,0.4386,9.3078,1.2715,1.2827,-0.222,0.311,-5.9827,5.5346,2.6592,0.3245,1.1025,1.0242,-8.0242,-2.7036,-0.9467,0.740687,0,1698373577.4452,98
-0.4463,-0.5224,-0.0399,0.9295,-0.5492,0.4441,1.0928,0.5885,9.3231,1.1891,1.1119,-0.1097,0.3493,-6.047,5.5704,2.7508,0.2189,0.9116,0.974,-8.0669,-2.7084,-0.9037,0.769275,0,1698373577.4543,99
-0.4472,-0.4017,-0.033,0.8937,-0.6854,0.4321,0.8204,0.6709,9.3718,1.1043,0.9425,-0.0208,0.3952,-6.1396,5.6078,2.8502,0.0976,0.696,0.918,-8.1293,-2.7386,-0.8588,0.803022,0,1698373577.4634,0
-0.4472,-0.2836,-0.0259,0.8437,-0.8704,0.4228,0.5594,0.6967,9.481,0.9849,0.7803,0.0364,0.4591,-6.2313,5.6353,2.9502,-0.0502,0.4646,0.8472,-8.2004,-2.8061,-0.8082,0.835299,0,1698373577.4737,1
-0.4471,-0.2033,-0.0187,0.7919,-1.0644,0.4275,0.3004,0.752,9.6837,0.904,0.6518,0.0782,0.5342,-6.3034,5.6416,3.0262,-0.2094,0.2295,0.759,-8.2591,-2.9155,-0.7745,0.847835,0,1698373577.4837,2
-0.447,-0.1462,-0.012,0.7776,-1.1861,0.4149,0.0643,0.8519,9.6517,0.9229,0.5605,0.1243,0.6079,-6.3727,5.6148,3.0583,-0.3424,0.0306,0.6666,-8.286,-3.0483,-0.7683,0.801987,0,1698373577.4946,2
-0.4468,-0.0886,-0.0052,0.7619,-1.1954,0.3353,-0.1438,0.8953,9.4672,1.0084,0.5006,0.1823,0.6736,-6.4335,5.5715,3.0685,-0.4474,-0.094,0.5847,-8.2692,-3.1579,-0.77,0.687856,0,1698373577.5043,3
-0.4464,-0.0145,0.0008,0.7197,-1.2427,0.3041,-0.3097,0.9576,9.2285,1.1104,0.4354,0.2674,0.7324,-6.4735,5.5346,3.0818,-0.5332,-0.1507,0.5193,-8.2188,-3.2427,-0.7715,0.539918,0,1698373577.5139,4
-0.4442,0.0855,0.0058,0.679,-1.8112,0.8935,-0.4855,1.4914,8.6216,1.099,0.3429,0.3753,0.7848,-6.4902,5.5001,3.094,-0.6033,-0.1786,0.4702,-8.1483,-3.318,-0.7642,0.393449,0,1698373577.5236,5
-0.4392,0.2092,0.011,0.6527,-2.5246,1.3487,-0.691,2.1182,8.5164,0.9009,0.2294,0.4701,0.8238,-6.4908,5.4642,3.0818,-0.6697,-0.2275,0.4295,-8.0671,-3.3545,-0.7488,0.264221,0,1698373577.5341,6
-0.431,0.4069,0.0159,0.6103,-2.5325,1.0879,-0.8694,2.047,8.834,0.9197,0.1105,0.5378,0.8465,-6.4966,5.4251,3.036,-0.7425,-0.3345,0.3894,-8.0158,-3.3559,-0.7479,0.151127,0,1698373577.544,6
-0.4191,0.6492,0.0205,0.5537,-2.1108,0.9722,-1.0037,1.7327,8.3307,1.1519,-0.0048,0.5665,0.8624,-6.5255,5.399,2.9691,-0.846,-0.5054,0.3506,-8.0369,-3.3455,-0.8057,0.065747,0,1698373577.5537,7
-0.4047,0.8383,0.0255,0.5286,-1.7926,1.0868,-1.0943,1.6714,7.8957,1.2552,-0.1166,0.5445,0.8858,-6.5931,5.3932,2.9119,-1.0064,-0.7089,0.3119,-8.1442,-3.301,-0.9016,0.014138,0,1698373577.5635,8
-0.3886,0.9893,0.0316,0.5522,-1.439,1.3089,-1.1367,1.7432,7.879,1.2991,-0.2059,0.4729,0.9338,-6.6934,5.4103,2.8532,-1.2546,-0.924,0.2648,-8.3194,-3.231,-0.9917,-0.01582,0,1698373577.5738,9
-0.3715,1.1557,0.0381,0.5801,-0.8933,1.5426,-1.1457,1.7669,8.1232,1.3295,-0.266,0.3747,1.0001,-6.813,5.4551,2.8039,-1.5923,-1.1329,0.2112,-8.5071,-3.191,-1.0661,-0.025216,0,1698373577.5839,9
-0.355,1.2599,0.0446,0.5816,-0.2556,1.6493,-1.1322,1.656,8.4618,1.4223,-0.3151,0.2813,1.066,-6.9447,5.5322,2.7974,-1.9969,-1.313,0.1516,-8.6917,-3.1864,-1.1082,-0.013492,0,1698373577.5948,10
-0.3404,1.2297,0.0514,0.5905,0.3199,1.7039,-1.0706,1.418,8.7637,1.4554,-0.367,0.2037,1.1301,-7.0833,5.6388,2.8247,-2.4227,-1.4282,0.0943,-8.8724,-3.2045,-1.116,0.011789,0,1698373577.6058,11
-0.3296,1.0931,0.0578,0.5885,1.2313,1.5726,-0.9895,1.1103,8.3993,1.4421,-0.4251,0.1698,1.1951,-7.2169,5.7612,2.8561,-2.7953,-1.4521,0.0557,-9.0163,-3.2679,-1.1138,0.126147,0,1698373577.6155,12
-0.3252,0.8879,0.063,0.5684,1.9971,1.416,-0.8686,0.8207,7.999,1.4202,-0.5231,0.2032,1.2525,-7.3485,5.9097,2.9098,-3.0097,-1.4084,0.0539,-9.1318,-3.4055,-1.1193,0.311837,0,1698373577.6253,13
-0.3257,0.6576,0.0674,0.5401,2.0569,1.5764,-0.7278,0.6722,8.5109,1.1753,-0.6691,0.2844,1.2945,-7.4924,6.0643,3.0136,-2.9793,-1.3549,0.0943,-9.2154,-3.5951,-1.0966,0.465222,0,1698373577.6342,13
-0.328,0.4517,0.0709,0.4901,1.989,1.8758,-0.6151,0.6279,9.0497,0.7661,-0.6258,0.3578,1.3117,-7.6405,6.1831,3.1426,-2.776,-1.3593,0.1435,-9.2691,-3.7817,-1.0148,0.584612,0,1698373577.644,14
-0.3309,0.284,0.0736,0.4291,1.8912,2.1543,-0.5266,0.5877,9.4364,0.4414,-0.6815,0.356,1.297,-7.7898,6.2796,3.3131,-2.5149,-1.4531,0.1689,-9.3246,-3.9398,-0.8951,0.677344,0,1698373577.654,15
-0.3342,0.1465,0.0757,0.3692,1.7692,2.3876,-0.4528,0.6425,9.8936,0.2257,-1.0606,0.2651,1.2694,-7.9311,6.3816,3.5184,-2.2456,-1.6461,0.3736,-9.4186,-4.0534,-0.7768,0.749205,0,1698373577.6637,16
-0.3378,0.0347,0.0776,0.3437,1.7272,2.5774,-0.3725,0.7305,10.3695,0.0962,-1.4948,0.1033,1.2659,-8.0529,6.506,3.6999,-1.9913,-1.9434,0.4781,-9.5846,-4.1115,-0.7081,0.80493,0,1698373577.6735,17
-0.3417,-0.0461,0.0797,0.3261,1.6887,2.7623,-0.2734,0.7703,10.5524,0.0343,-1.9863,-0.0999,1.3211,-8.1328,6.6657,3.8306,-1.7733,-2.3065,0.2771,-9.8049,-4.1206,-0.6895,0.848383,0,1698373577.6838,17
-0.3449,-0.0946,0.0821,0.2919,1.6162,2.9673,-0.1726,0.864,10.456,0.0817,-2.5121,-0.3421,1.4381,-8.1577,6.8744,3.8849,-1.6287,-2.6651,0.064,-10.0451,-4.0562,-0.6943,0.882234,0,1698373577.6936,18
-0.3464,-0.0762,0.0842,0.2532,1.7055,3.1299,-0.0509,0.9365,10.4237,0.3205,-3.0509,-0.5686,1.615,-8.1035,7.1625,3.7918,-1.5991,-2.9642,-0.1349,-10.3117,-3.9314,-0.7331,0.908528,0,1698373577.7038,19
-0.3449,0.0278,0.0852,0.2007,1.9352,3.2102,0.0743,0.9431,10.3077,0.9628,-3.5937,-0.7257,1.8394,-7.9925,7.4386,3.689,-1.709,-3.1845,-0.3038,-10.5769,-3.7727,-0.7787,0.928951,0,1698373577.7137,20
-0.3409,0.1666,0.0852,0.1497,2.0581,3.2002,0.1861,0.7151,10.2614,1.6277,-4.0819,-0.8154,2.0478,-7.9017,7.6129,3.645,-1.9367,-3.3207,-0.4264,-10.7815,-3.6174,-0.7989,0.944814,0,1698373577.7238,20
-0.3348,0.2912,0.0847,0.0996,1.9568,3.1634,0.3351,0.2502,10.4871,1.9787,-4.4312,-0.7998,2.19,-7.8499,7.7134,3.5488,-2.2303,-3.3788,-0.4919,-10.9062,-3.5082,-0.8394,0.957136,0,1698373577.7336,21
-0.327,0.4195,0.0825,-0.0198,2.2173,3.0257,0.4338,-0.2538,10.4379,2.3277,-4.5594,-0.6727,2.2417,-7.896,7.7227,3.3843,-2.5538,-3.3694,-0.5172,-10.9675,-3.4162,-0.9481,0.966706,0,1698373577.7444,22
-0.3188,0.5119,0.0762,-0.2305,2.907,2.8114,0.5565,-0.8691,9.6877,2.8827,-4.4289,-0.4777,2.1761,-8.0286,7.6759,3.159,-2.8528,-3.2879,-0.5274,-10.963,-3.3624,-1.0975,0.974139,0,1698373577.7551,23
-0.3118,0.5356,0.0656,-0.5005,3.2254,2.6995,0.7933,-1.3649,9.3466,3.4447,-4.1289,-0.2435,2.0111,-8.1471,7.6009,2.9209,-3.062,-3.0857,-0.515,-10.8072,-3.3305,-1.2563,0.979913,0,1698373577.765,24
-0.307,0.517,0.0519,-0.7573,3.2001,2.6271,1.036,-1.4835,9.9228,3.6822,-3.7613,0.0559,1.7712,-8.2166,7.4586,2.6694,-3.1674,-2.7472,-0.4644,-10.4883,-3.2573,-1.4027,0.984398,0,1698373577.7748,24
-0.3043,0.4478,0.0355,-0.9435,3.206,2.5308,1.2373,-1.4367,10.0485,3.7049,-3.3667,0.436,1.4622,-8.2017,7.2567,2.4013,-3.2152,-2.3019,-0.3935,-10.0739,-3.1377,-1.5169,0.987882,0,1698373577.7843,25
-0.3032,0.3786,0.0178,-1.1221,3.0563,2.542,1.3953,-1.3303,9.684,3.7297,-2.9835,0.859,1.1105,-8.0624,7.0328,2.1541,-3.254,-1.7557,-0.2993,-9.6293,-2.9702,-1.5914,0.990587,0,1698373577.7938,26
-0.3014,0.3713,-0.002,-1.3841,2.1245,2.9607,1.3664,-0.7163,9.8991,3.6742,-2.6773,1.26,0.7709,-7.7986,6.8437,1.942,-3.2799,-1.1841,-0.1784,-9.2405,-2.7738,-1.6218,0.992689,0,1698373577.8045,27
-0.2963,0.43,-0.0258,-1.6145,1.1434,3.2245,1.1701,-0.1426,10.7683,3.6848,-2.4855,1.6021,0.4875,-7.4547,6.7171,1.7594,-3.2898,-0.7111,-0.053,-8.9593,-2.548,-1.6304,0.99431,0,1698373577.8148,28
-0.2875,0.5219,-0.0514,-1.7853,1.006,3.0297,0.9707,-0.1541,10.7144,3.9402,-2.4243,1.833,0.2836,-7.0898,6.6746,1.6173,-3.3239,-0.4366,0.0607,-8.8403,-2.289,-1.6256,0.995555,0,1698373577.8244,28
-0.2763,0.6352,-0.0751,-1.974,0.9197,2.8665,0.781,-0.2969,10.0451,4.0144,-2.4705,1.933,0.1797,-6.7617,6.7427,1.4943,-3.3759,-0.3878,0.1327,-8.8692,-2.0293,-1.605,0.996519,0,1698373577.8344,29
-0.2643,0.7702,-0.0981,-2.052,0.5979,2.8846,0.6549,-0.3904,10.004,3.7368,-2.5354,1.974,0.1834,-6.4932,6.8562,1.3692,-3.3976,-0.5102,0.1316,-8.9582,-1.7963,-1.5818,0.997264,0,1698373577.8438,30
-0.2528,0.8478,-0.1218,-2.0655,0.3257,3.2421,0.5936,-0.454,9.8775,3.4808,-2.5781,1.9974,0.2579,-6.3304,6.9492,1.2877,-3.3787,-0.7492,0.0583,-9.1003,-1.6265,-1.5371,0.997843,0,1698373577.8541,31
-0.2423,0.8589,-0.1448,-2.1196,-0.1907,3.4158,0.5263,-0.5523,10.0951,3.2874,-2.5942,2.0019,0.3319,-6.3255,7.019,1.2493,-3.3094,-1.0585,-0.0702,-9.2879,-1.5882,-1.4665,0.9983,0,1698373577.8642,31
-0.2324,0.885,-0.1669,-2.1316,-0.5424,3.169,0.4571,-0.8748,10.5504,3.1211,-2.5761,1.9986,0.3672,-6.4795,7.0612,1.2534,-3.19,-1.3464,-0.2289,-9.451,-1.7108,-1.4064,0.998546,0,1698373577.8739,32
-0.2238,0.9049,-0.1879,-2.1296,-0.5267,2.9423,0.3752,-1.3327,10.5836,2.9604,-2.5151,2.0105,0.3683,-6.7532,7.0429,1.3184,-3.0367,-1.5249,-0.3844,-9.5368,-1.9581,-1.3695,0.998409,0,1698373577.8836,33
-0.2158,0.887,-0.2075,-2.1075,-0.633,2.7304,0.2297,-1.6886,10.6072,2.7014,-2.3877,2.0505,0.3469,-7.0624,6.9408,1.4391,-2.8555,-1.5459,-0.5147,-9.53,-2.286,-1.3361,0.997044,0,1698373577.8944,34
-0.2072,0.8644,-0.2266,-2.0647,-0.7291,2.4602,0.0563,-2.0279,10.6063,2.4384,-2.1472,2.0849,0.2869,-7.3589,6.7666,1.5855,-2.6542,-1.3773,-0.5894,-9.4466,-2.5909,-1.3075,0.987038,0,1698373577.9048,35
-0.1978,0.8648,-0.2443,-2.0192,-0.7144,2.1429,-0.1526,-2.266,10.4797,2.1455,-1.7866,2.0545,0.1422,-7.602,6.5615,1.7049,-2.4348,-1.0427,-0.5878,-9.3089,-2.8213,-1.3202,0.897337,0,1698373577.9149,35
-0.1881,0.9027,-0.2599,-1.9308,-0.5998,1.7397,-0.4154,-2.4296,10.3344,1.9214,-1.3752,1.9491,-0.0988,-7.727,6.3755,1.7706,-2.1689,-0.6251,-0.5286,-9.1201,-2.9567,-1.358,0.711521,0,1698373577.9253,36
-0.178,0.9618,-0.2739,-1.847,-0.4179,1.2637,-0.6962,-2.5858,10.1602,1.7581,-0.9969,1.8093,-0.3849,-7.7027,6.2503,1.7839,-1.8397,-0.2087,-0.4409,-8.9291,-2.9755,-1.3718,0.532633,0,1698373577.9347,37
-0.1679,0.9956,-0.2862,-1.7467,-0.1598,0.7815,-0.9689,-2.6016,9.7294,1.6785,-0.6844,1.6641,-0.6659,-7.5537,6.1787,1.7499,-1.4621,0.1428,-0.3403,-8.7567,-2.9012,-1.3435,0.411181,0,1698373577.9445,38
-0.158,0.9996,-0.2973,-1.6167,0.0772,0.3116,-1.2616,-2.4807,9.3993,1.645,-0.4458,1.5317,-0.9165,-7.3163,6.1059,1.6821,-1.053,0.3775,-0.2384,-8.6065,-2.7801,-1.2776,0.325903,0,1698373577.9548,39
-0.1481,0.9807,-0.3078,-1.5126,0.3057,-0.1745,-1.5495,-2.3031,9.3621,1.599,-0.2895,1.4084,-1.124,-7.0256,6.0388,1.6326,-0.6295,0.4848,-0.1618,-8.4735,-2.6443,-1.2049,0.244241,0,1698373577.9646,39
-0.1383,0.9788,-0.3176,-1.42,0.4269,-0.581,-1.7961,-2.0332,9.3834,1.5718,-0.2056,1.2768,-1.2809,-6.7249,5.9967,1.596,-0.177,0.4786,-0.121,-8.3406,-2.5193,-1.1243,0.156249,0,1698373577.9745,40
-0.129,0.972,-0.3272,-1.3215,0.5202,-0.9453,-1.9953,-1.8022,9.3994,1.5824,-0.1865,1.1491,-1.384,-6.4433,5.9558,1.5716,0.298,0.3861,-0.1038,-8.2207,-2.4252,-1.0267,0.108752,0,1698373577.9851,41
-0.1197,0.9317,-0.3365,-1.247,0.5577,-1.2581,-2.1279,-1.6342,9.3696,1.626,-0.1946,1.0473,-1.4266,-6.2139,5.8962,1.5901,0.7062,0.2588,-0.1058,-8.125,-2.3305,-0.8974,0.099082,0,1698373577.9951,42
-0.1105,0.9056,-0.3457,-1.1995,0.2647,-1.4866,-2.2139,-1.4639,9.4072,1.5834,-0.1677,0.964,-1.4085,-6.0469,5.8146,1.6547,1.0105,0.1267,-0.1278,-8.06,-2.2579,-0.7406,0.087095,0,1698373578.0042,43
-0.1021,0.9074,-0.3543,-1.132,-0.0378,-1.6683,-2.261,-1.3375,9.4542,1.5249,-0.0812,0.8839,-1.3442,-5.9514,5.7339,1.7591,1.1888,-0.004,-0.179,-8.0094,-2.2299,-0.5838,0.077102,0,1698373578.0137,43
-0.094,0.9193,-0.3624,-1.0351,-0.1152,-1.818,-2.2474,-1.2893,9.5245,1.43,0.0491,0.8055,-1.2559,-5.9277,5.6905,1.9015,1.2038,-0.1029,-0.2622,-7.9796,-2.2264,-0.4577,0.069293,0,1698373578.0248,44
-0.0852,0.8931,-0.3704,-0.9448,-0.2187,-1.924,-2.1558,-1.2698,9.5542,1.2716,0.1699,0.7123,-1.1703,-5.9323,5.6877,2.0438,1.1209,-0.1551,-0.3584,-7.9903,-2.2546,-0.3839,0.06379,0,1698373578.0346,45
-0.0766,0.856,-0.3773,-0.8736,-0.3486,-1.9902,-1.9961,-1.2832,9.492,1.1518,0.2501,0.6288,-1.0961,-5.9575,5.716,2.1464,1.0104,-0.1624,-0.4476,-8.0398,-2.3014,-0.3551,0.061261,0,1698373578.0442,46
-0.069,0.8324,-0.3828,-0.8153,-0.3719,-2.0543,-1.7902,-1.3525,9.3873,1.0293,0.326,0.5895,-1.0342,-6.0127,5.7709,2.2148,0.8999,-0.1093,-0.5185,-8.1079,-2.3441,-0.3549,0.054183,0,1698373578.054,46
-0.0618,0.7987,-0.3878,-0.7432,-0.5068,-2.0028,-1.5536,-1.2622,9.1004,1.0192,0.4173,0.6075,-0.9725,-6.0571,5.8419,2.2474,0.8115,-0.0083,-0.5609,-8.1699,-2.3832,-0.3438,0.017059,0,1698373578.0642,47
-0.0545,0.7922,-0.392,-0.6558,-0.753,-1.9124,-1.3042,-1.0734,8.9741,1.1484,0.5326,0.6829,-0.911,-6.0785,5.9117,2.2569,0.748,0.128,-0.5648,-8.2119,-2.4082,-0.3162,-0.072122,0,1698373578.0735,48
-0.0476,0.7759,-0.3945,-0.5569,-0.9527,-1.8764,-1.0619,-0.9577,9.193,1.1432,0.6758,0.7576,-0.8734,-6.1051,5.9646,2.2637,0.7072,0.2868,-0.5329,-8.2537,-2.4164,-0.2793,-0.177973,0,1698373578.0843,49
-0.0405,0.7667,-0.3952,-0.4411,-1.0286,-1.8194,-0.8268,-0.862,9.2357,1.0598,0.8374,0.7876,-0.8664,-6.1198,6.0011,2.2953,0.6806,0.4297,-0.4825,-8.3205,-2.4116,-0.2156,-0.260789,0,1698373578.094,50
-0.0329,0.7612,-0.3951,-0.3265,-1.0867,-1.7257,-0.6118,-0.7425,9.1551,1.0038,1.0105,0.7699,-0.8711,-6.1146,6.0423,2.3508,0.6539,0.5423,-0.4247,-8.4088,-2.3958,-0.1263,-0.32246,0,1698373578.1035,50
-0.0257,0.7471,-0.395,-0.2445,-1.2324,-1.6265,-0.4372,-0.6406,9.2285,0.9366,1.1672,0.7178,-0.8655,-6.0957,6.1179,2.4099,0.629,0.6265,-0.3678,-8.4996,-2.3835,-0.0374,-0.365062,0,1698373578.1141,51
-0.018,0.7358,-0.3947,-0.1933,-1.4231,-1.4949,-0.2862,-0.5957,9.3379,0.8453,1.2744,0.6714,-0.8295,-6.0532,6.214,2.4695,0.6079,0.6995,-0.3168,-8.5615,-2.356,0.0295,-0.385989,0,1698373578.124,52
-0.01,0.7348,-0.3944,-0.1467,-1.6471,-1.3441,-0.1348,-0.6249,9.5269,0.6643,1.3261,0.6524,-0.7633,-5.9833,6.298,2.5222,0.5745,0.7758,-0.2662,-8.5952,-2.3176,0.067,-0.381356,0,1698373578.1341,53
-0.0022,0.787,-0.394,-0.0924,-1.7606,-1.1733,0.0083,-0.6222,9.5558,0.49,1.3237,0.6513,-0.682,-5.9017,6.3662,2.543,0.5196,0.8453,-0.2191,-8.6099,-2.2712,0.0777,-0.363548,0,1698373578.1448,54
0.0058,0.794,-0.3929,-0.0233,-1.6501,-1.1906,0.1493,-0.5862,9.3585,0.5559,1.2656,0.6453,-0.595,-5.8244,6.4149,2.5288,0.4454,0.8925,-0.1809,-8.6157,-2.2133,0.0539,-0.345188,0,1698373578.1549,54
0.0136,0.7789,-0.3901,0.0777,-1.6198,-1.2995,0.3381,-0.6558,9.0773,0.7533,1.1429,0.616,-0.5163,-5.7671,6.4308,2.5134,0.3537,0.901,-0.1606,-8.6228,-2.1859,0.0216,-0.32975,0,1698373578.1648,55
0.0207,0.7952,-0.3858,0.1714,-1.7581,-1.235,0.5878,-0.8146,8.7444,0.8163,0.9666,0.5616,-0.4561,-5.7645,6.4234,2.5138,0.2492,0.865,-0.1686,-8.6145,-2.1849,0.017,-0.321782,0,1698373578.1742,56
0.0274,0.7818,-0.381,0.2478,-1.7948,-1.1533,0.8338,-0.9633,8.5201,0.7714,0.7956,0.4802,-0.4152,-5.8393,6.4067,2.4777,0.1484,0.7671,-0.215,-8.6112,-2.2117,0.0362,-0.317488,0,1698373578.1837,57
0.034,0.7721,-0.375,0.3534,-1.8548,-1.0822,1.0385,-1.0113,8.4798,0.7028,0.685,0.365,-0.3912,-5.9833,6.3993,2.4567,0.0744,0.5948,-0.3038,-8.6266,-2.2827,0.0605,-0.313875,0,1698373578.1947,57
0.0414,0.759,-0.3671,0.4481,-1.7656,-1.2968,1.2319,-1.0884,9.0791,0.7563,0.7948,-0.0014,-0.3907,-6.4338,6.4051,2.561,0.0605,0.1436,-0.6021,-8.7212,-2.5798,0.0225,-0.343295,0,1698373578.2139,58
0.0514,0.7257,-0.3549,0.524,-1.5527,-1.457,1.2803,-1.3104,9.2446,0.7895,0.9929,-0.2008,-0.4079,-6.6574,6.409,2.6371,0.0922,-0.0207,-0.769,-8.7858,-2.7376,-0.0236,-0.426005,0,1698373578.2241,59
0.0601,0.6889,-0.3438,0.5659,-1.2944,-1.5976,1.2592,-1.4423,9.3798,0.8922,1.2549,-0.383,-0.4349,-6.8345,6.4185,2.7226,0.1347,-0.0717,-0.9173,-8.8309,-2.866,-0.0977,-0.518658,0,1698373578.2339,60
0.0647,0.6226,-0.3381,0.544,-1.0102,-1.7775,1.161,-1.465,9.576,0.979,1.5138,-0.5381,-0.4746,-6.951,6.4566,2.795,0.2095,-0.0337,-1.0317,-8.8942,-2.9765,-0.1513,-0.588768,0,1698373578.2435,61
0.0675,0.5445,-0.3336,0.5057,-0.8151,-1.9429,1.0028,-1.4854,9.8315,0.9242,1.7183,-0.6543,-0.526,-7.0093,6.5223,2.845,0.352,0.0632,-1.0941,-8.9539,-3.043,-0.1627,-0.637543,0,1698373578.2544,61
0.0692,0.4684,-0.3308,0.4329,-0.753,-2.0159,0.8067,-1.4162,10.1583,0.7331,1.8371,-0.7353,-0.5905,-7.0015,6.6088,2.8775,0.5351,0.1836,-1.1034,-9.025,-3.0391,-0.1274,-0.651528,0,1698373578.2654,62
0.0707,0.3941,-0.3301,0.3314,-0.6903,-2.0684,0.5803,-1.2775,10.2381,0.587,1.8246,-0.787,-0.656,-6.9174,6.7359,2.8877,0.6858,0.2566,-1.0765,-9.1667,-2.9658,-0.0474,-0.634,0,1698373578.2751,63
0.072,0.3298,-0.3307,0.229,-0.616,-2.1125,0.3482,-1.128,10.213,0.4722,1.6751,-0.8093,-0.7043,-6.8125,6.8777,2.8935,0.7833,0.4403,-1.0369,-9.3873,-2.8821,0.0677,-0.616738,0,1698373578.2842,64
