right q,right q dot,left q,left q dot,right_shoulder_ang_x,right_shoulder_ang_y,right_shoulder_ang_z,right_shoulder_acc_x,right_shoulder_acc_y,right_shoulder_acc_z,left_shoulder_ang_x,left_shoulder_ang_y,left_shoulder_ang_z,left_shoulder_acc_x,left_shoulder_acc_y,left_shoulder_acc_z,Label
-0.2317,0.037,0.3321,0.2047,-0.4166,0.0346,0.909,-0.0175,0.002,0.005,-0.4071,-0.0812,0.8999,0.0021,-0.0028,-0.0052,0
-0.2317,0.037,0.3321,0.2047,-0.5445,-0.082,1.0085,-0.0024,-0.0377,0.0674,-0.43,-0.1756,1.0219,0.1179,-0.1751,0.1713,0
-0.2307,0.0293,0.339,0.1464,-0.5445,-0.082,1.0085,-0.0024,-0.0377,0.0674,-0.43,-0.1756,1.0219,0.1179,-0.1751,0.1713,1
-0.2307,0.0293,0.339,0.1464,-0.5574,-0.0788,1.0228,0.0064,-0.052,0.0646,-0.441,-0.1709,1.0354,0.116,-0.1689,0.1906,1
-0.2302,0.0241,0.3424,0.1043,-0.5574,-0.0788,1.0228,0.0064,-0.052,0.0646,-0.441,-0.1709,1.0354,0.116,-0.1689,0.1906,1
-0.2302,0.0241,0.3424,0.1043,-0.5758,-0.0702,1.0381,0.0303,-0.0681,0.0571,-0.4595,-0.162,1.0506,0.1055,-0.145,0.2184,2
-0.2295,0.0215,0.3454,0.0393,-0.5758,-0.0702,1.0381,0.0303,-0.0681,0.0571,-0.4595,-0.162,1.0506,0.1055,-0.145,0.2184,2
-0.2295,0.0215,0.3454,0.0393,-0.5874,-0.0617,1.0431,0.0513,-0.0756,0.0504,-0.4732,-0.1553,1.0567,0.0931,-0.1226,0.2352,2
-0.229,0.027,0.346,-0.0052,-0.5874,-0.0617,1.0431,0.0513,-0.0756,0.0504,-0.4732,-0.1553,1.0567,0.0931,-0.1226,0.2352,3
-0.229,0.027,0.346,-0.0052,-0.5984,-0.0508,1.0431,0.074,-0.0813,0.0434,-0.4874,-0.1487,1.0594,0.0766,-0.0981,0.2497,3
-0.2286,0.0329,0.3459,-0.0282,-0.5984,-0.0508,1.0431,0.074,-0.0813,0.0434,-0.4874,-0.1487,1.0594,0.0766,-0.0981,0.2497,3
-0.2286,0.0329,0.3459,-0.0282,-0.6085,-0.0378,1.0377,0.0958,-0.0861,0.0374,-0.5016,-0.1421,1.0585,0.0561,-0.0744,0.2616,4
-0.2276,0.0524,0.3448,-0.0771,-0.6085,-0.0378,1.0377,0.0958,-0.0861,0.0374,-0.5016,-0.1421,1.0585,0.0561,-0.0744,0.2616,4
-0.2276,0.0524,0.3448,-0.0771,-0.613,-0.0305,1.0329,0.1057,-0.0884,0.0354,-0.5084,-0.1389,1.0566,0.0444,-0.0636,0.2665,4
-0.2269,0.0664,0.3437,-0.1035,-0.613,-0.0305,1.0329,0.1057,-0.0884,0.0354,-0.5084,-0.1389,1.0566,0.0444,-0.0636,0.2665,5
-0.226,0.0834,0.3424,-0.1319,-0.6171,-0.0229,1.0267,0.1144,-0.0908,0.0342,-0.5147,-0.1356,1.0537,0.0317,-0.0539,0.2707,5
-0.2249,0.1033,0.3406,-0.1624,-0.6208,-0.0148,1.0191,0.1217,-0.0932,0.0342,-0.5205,-0.1323,1.0498,0.0181,-0.0454,0.2743,5
-0.2249,0.1033,0.3406,-0.1624,-0.6238,-0.0064,1.0102,0.1274,-0.0959,0.0356,-0.5255,-0.1289,1.0448,0.0036,-0.0382,0.2774,6
-0.2235,0.1263,0.3384,-0.1956,-0.6238,-0.0064,1.0102,0.1274,-0.0959,0.0356,-0.5255,-0.1289,1.0448,0.0036,-0.0382,0.2774,6
-0.2235,0.1263,0.3384,-0.1956,-0.6262,0.0022,0.9999,0.1313,-0.0987,0.0386,-0.5296,-0.1254,1.0386,-0.0119,-0.0324,0.2802,6
-0.2218,0.1521,0.3358,-0.2317,-0.6262,0.0022,0.9999,0.1313,-0.0987,0.0386,-0.5296,-0.1254,1.0386,-0.0119,-0.0324,0.2802,7
-0.2198,0.1806,0.3328,-0.271,-0.6279,0.0111,0.9885,0.1331,-0.1016,0.0435,-0.5326,-0.1216,1.0314,-0.0283,-0.028,0.2826,7
-0.2174,0.2115,0.3292,-0.3136,-0.6288,0.0201,0.9759,0.1328,-0.1046,0.0504,-0.5346,-0.1176,1.023,-0.0456,-0.0248,0.2849,7
-0.2146,0.2444,0.325,-0.3598,-0.6288,0.0293,0.9623,0.1303,-0.1075,0.0594,-0.5354,-0.1132,1.0134,-0.0638,-0.0228,0.2872,8
-0.2114,0.279,0.3203,-0.4094,-0.628,0.0385,0.9479,0.1253,-0.1104,0.0707,-0.535,-0.1084,1.0026,-0.0827,-0.0217,0.2897,8
-0.2114,0.279,0.3203,-0.4094,-0.6262,0.0478,0.9328,0.118,-0.1129,0.0842,-0.5334,-0.1032,0.9907,-0.1024,-0.0213,0.2925,8
-0.2077,0.3147,0.3149,-0.4625,-0.6262,0.0478,0.9328,0.118,-0.1129,0.0842,-0.5334,-0.1032,0.9907,-0.1024,-0.0213,0.2925,9
-0.2036,0.351,0.3089,-0.5189,-0.6235,0.057,0.9173,0.1083,-0.1151,0.1,-0.5307,-0.0975,0.9778,-0.1227,-0.0213,0.2959,9
-0.2036,0.351,0.3089,-0.5189,-0.6198,0.0663,0.9016,0.0962,-0.1167,0.118,-0.5271,-0.0914,0.964,-0.1433,-0.0214,0.2998,9
-0.199,0.3873,0.3021,-0.5783,-0.6198,0.0663,0.9016,0.0962,-0.1167,0.118,-0.5271,-0.0914,0.964,-0.1433,-0.0214,0.2998,10
-0.194,0.4229,0.2945,-0.6404,-0.6153,0.0754,0.8858,0.0819,-0.1176,0.1381,-0.5225,-0.0849,0.9493,-0.1641,-0.0213,0.3046,10
-0.194,0.4229,0.2945,-0.6404,-0.6099,0.0845,0.8702,0.0655,-0.1177,0.1601,-0.5171,-0.0779,0.9339,-0.1848,-0.0209,0.3102,10
-0.1885,0.4573,0.2862,-0.7048,-0.6099,0.0845,0.8702,0.0655,-0.1177,0.1601,-0.5171,-0.0779,0.9339,-0.1848,-0.0209,0.3102,11
-0.1826,0.4897,0.2771,-0.7709,-0.6038,0.0933,0.855,0.0471,-0.1169,0.1839,-0.5111,-0.0706,0.918,-0.2051,-0.0197,0.3167,11
-0.1826,0.4897,0.2771,-0.7709,-0.5969,0.102,0.8404,0.0271,-0.1151,0.2092,-0.5048,-0.063,0.9016,-0.2248,-0.0175,0.3241,11
-0.1763,0.5196,0.2671,-0.8381,-0.5969,0.102,0.8404,0.0271,-0.1151,0.2092,-0.5048,-0.063,0.9016,-0.2248,-0.0175,0.3241,12
-0.1697,0.5463,0.2563,-0.9057,-0.5893,0.1104,0.8266,0.0056,-0.1124,0.2356,-0.4981,-0.055,0.8851,-0.2435,-0.0143,0.3325,12
-0.1697,0.5463,0.2563,-0.9057,-0.5813,0.1186,0.8139,-0.0171,-0.1087,0.263,-0.4914,-0.0469,0.8687,-0.261,-0.0097,0.3419,12
-0.1627,0.5694,0.2447,-0.9729,-0.5813,0.1186,0.8139,-0.0171,-0.1087,0.263,-0.4914,-0.0469,0.8687,-0.261,-0.0097,0.3419,13
-0.1555,0.5883,0.2323,-1.0389,-0.5728,0.1264,0.8024,-0.0406,-0.1042,0.291,-0.4848,-0.0387,0.8524,-0.277,-0.0038,0.3521,13
-0.1555,0.5883,0.2323,-1.0389,-0.564,0.1338,0.7922,-0.0646,-0.0988,0.3194,-0.4786,-0.0305,0.8367,-0.2912,0.0035,0.3631,13
-0.148,0.6027,0.2191,-1.1029,-0.564,0.1338,0.7922,-0.0646,-0.0988,0.3194,-0.4786,-0.0305,0.8367,-0.2912,0.0035,0.3631,14
-0.1404,0.6122,0.2052,-1.164,-0.5551,0.1408,0.7835,-0.0888,-0.0927,0.3477,-0.4727,-0.0223,0.8216,-0.3035,0.0121,0.3749,14
-0.1404,0.6122,0.2052,-1.164,-0.5461,0.1473,0.7763,-0.1129,-0.0861,0.3758,-0.4675,-0.0143,0.8074,-0.3136,0.0221,0.3872,14
-0.1327,0.6168,0.1905,-1.2214,-0.5461,0.1473,0.7763,-0.1129,-0.0861,0.3758,-0.4675,-0.0143,0.8074,-0.3136,0.0221,0.3872,15
-0.1327,0.6168,0.1905,-1.2214,-0.5371,0.1533,0.7709,-0.1365,-0.079,0.4033,-0.4631,-0.0065,0.7944,-0.3213,0.0332,0.4,15
-0.1249,0.6164,0.1752,-1.2742,-0.5371,0.1533,0.7709,-0.1365,-0.079,0.4033,-0.4631,-0.0065,0.7944,-0.3213,0.0332,0.4,15
-0.1172,0.6111,0.1593,-1.3218,-0.5282,0.1587,0.7671,-0.1593,-0.0717,0.4299,-0.4594,0.0009,0.7826,-0.3265,0.0454,0.4131,16
-0.1172,0.6111,0.1593,-1.3218,-0.5196,0.1635,0.7651,-0.1809,-0.0641,0.4555,-0.4567,0.0079,0.7722,-0.3291,0.0585,0.4264,16
-0.1095,0.601,0.1429,-1.3633,-0.5196,0.1635,0.7651,-0.1809,-0.0641,0.4555,-0.4567,0.0079,0.7722,-0.3291,0.0585,0.4264,16
-0.102,0.5866,0.1261,-1.3982,-0.5112,0.1676,0.7648,-0.201,-0.0566,0.4798,-0.455,0.0143,0.7633,-0.3291,0.0722,0.4397,17
-0.102,0.5866,0.1261,-1.3982,-0.5031,0.1709,0.7661,-0.2193,-0.0492,0.5025,-0.4542,0.0202,0.7562,-0.3265,0.0863,0.4527,17
-0.0947,0.5682,0.1089,-1.4259,-0.5031,0.1709,0.7661,-0.2193,-0.0492,0.5025,-0.4542,0.0202,0.7562,-0.3265,0.0863,0.4527,17
-0.0877,0.5465,0.0915,-1.446,-0.4954,0.1735,0.769,-0.2355,-0.042,0.5236,-0.4544,0.0254,0.7507,-0.3213,0.1006,0.4653,18
-0.0877,0.5465,0.0915,-1.446,-0.4881,0.1753,0.7733,-0.2494,-0.0351,0.5428,-0.4556,0.03,0.747,-0.3136,0.1148,0.4773,18
-0.0809,0.5221,0.0739,-1.4582,-0.4881,0.1753,0.7733,-0.2494,-0.0351,0.5428,-0.4556,0.03,0.747,-0.3136,0.1148,0.4773,18
-0.0745,0.4957,0.0563,-1.4623,-0.4812,0.1764,0.7789,-0.2607,-0.0286,0.5601,-0.4576,0.034,0.745,-0.3036,0.1287,0.4885,19
-0.0745,0.4957,0.0563,-1.4623,-0.4748,0.1767,0.7856,-0.2692,-0.0226,0.5752,-0.4604,0.0372,0.7447,-0.2914,0.142,0.4986,19
-0.0684,0.4682,0.0387,-1.4581,-0.4748,0.1767,0.7856,-0.2692,-0.0226,0.5752,-0.4604,0.0372,0.7447,-0.2914,0.142,0.4986,19
-0.0626,0.4405,0.0212,-1.4458,-0.4687,0.1762,0.7933,-0.2749,-0.0171,0.5881,-0.4638,0.0399,0.746,-0.2774,0.1547,0.5076,20
-0.0626,0.4405,0.0212,-1.4458,-0.463,0.175,0.8018,-0.2776,-0.0121,0.5987,-0.4678,0.0419,0.7489,-0.2617,0.1664,0.5152,20
-0.0572,0.4133,0.004,-1.4255,-0.463,0.175,0.8018,-0.2776,-0.0121,0.5987,-0.4678,0.0419,0.7489,-0.2617,0.1664,0.5152,20
-0.0521,0.3874,-0.013,-1.3975,-0.4577,0.1731,0.8108,-0.2771,-0.0077,0.6071,-0.4722,0.0433,0.7532,-0.2447,0.177,0.5213,21
-0.0521,0.3874,-0.013,-1.3975,-0.4528,0.1706,0.8201,-0.2737,-0.004,0.6131,-0.4768,0.0441,0.7587,-0.2268,0.1864,0.5257,21
-0.0474,0.3638,-0.0295,-1.3623,-0.4528,0.1706,0.8201,-0.2737,-0.004,0.6131,-0.4768,0.0441,0.7587,-0.2268,0.1864,0.5257,21
-0.0429,0.343,-0.0455,-1.3203,-0.4481,0.1676,0.8294,-0.2672,-0.0009,0.6168,-0.4815,0.0445,0.7654,-0.2081,0.1945,0.5284,22
-0.0429,0.343,-0.0455,-1.3203,-0.4437,0.1641,0.8386,-0.2578,0.0015,0.6181,-0.4861,0.0445,0.7729,-0.1892,0.2013,0.5293,22
-0.0387,0.3257,-0.061,-1.2722,-0.4437,0.1641,0.8386,-0.2578,0.0015,0.6181,-0.4861,0.0445,0.7729,-0.1892,0.2013,0.5293,22
-0.0347,0.3123,-0.0758,-1.2188,-0.4396,0.1602,0.8474,-0.2457,0.0032,0.6172,-0.4906,0.0441,0.7812,-0.1704,0.2067,0.5283,23
-0.0347,0.3123,-0.0758,-1.2188,-0.4356,0.156,0.8557,-0.231,0.0042,0.6142,-0.4946,0.0434,0.7899,-0.152,0.2107,0.5254,23
-0.0309,0.3033,-0.09,-1.1608,-0.4356,0.156,0.8557,-0.231,0.0042,0.6142,-0.4946,0.0434,0.7899,-0.152,0.2107,0.5254,23
-0.0273,0.2989,-0.1035,-1.099,-0.4318,0.1516,0.8632,-0.214,0.0044,0.6091,-0.4982,0.0424,0.7988,-0.1343,0.2135,0.5208,24
-0.0273,0.2989,-0.1035,-1.099,-0.4281,0.1471,0.8697,-0.1951,0.0039,0.602,-0.5011,0.0413,0.8079,-0.1177,0.215,0.5144,24
-0.0237,0.2992,-0.1162,-1.0344,-0.4281,0.1471,0.8697,-0.1951,0.0039,0.602,-0.5011,0.0413,0.8079,-0.1177,0.215,0.5144,24
-0.0201,0.3041,-0.1281,-0.9677,-0.4245,0.1426,0.8752,-0.1744,0.0027,0.5932,-0.5033,0.0399,0.8167,-0.1024,0.2153,0.5063,25
-0.0201,0.3041,-0.1281,-0.9677,-0.4209,0.1382,0.8796,-0.1525,0.0008,0.5827,-0.5047,0.0385,0.8252,-0.0886,0.2146,0.4967,25
-0.0164,0.3134,-0.1392,-0.9,-0.4209,0.1382,0.8796,-0.1525,0.0008,0.5827,-0.5047,0.0385,0.8252,-0.0886,0.2146,0.4967,25
-0.0127,0.327,-0.1496,-0.8321,-0.4173,0.134,0.8827,-0.1297,-0.0018,0.5709,-0.5051,0.037,0.8332,-0.0765,0.2129,0.4857,26
-0.0127,0.327,-0.1496,-0.8321,-0.4137,0.13,0.8845,-0.1063,-0.0051,0.5578,-0.5046,0.0355,0.8404,-0.0662,0.2104,0.4735,26
-0.0088,0.3444,-0.1592,-0.7648,-0.4137,0.13,0.8845,-0.1063,-0.0051,0.5578,-0.5046,0.0355,0.8404,-0.0662,0.2104,0.4735,26
-0.0047,0.3653,-0.168,-0.6989,-0.4101,0.1264,0.8851,-0.0829,-0.0089,0.5439,-0.5032,0.034,0.8468,-0.0578,0.2071,0.4603,27
-0.0047,0.3653,-0.168,-0.6989,-0.4065,0.1232,0.8843,-0.0598,-0.0133,0.5292,-0.5008,0.0326,0.8523,-0.0514,0.2034,0.4463,27
-0.0003,0.389,-0.176,-0.6351,-0.4065,0.1232,0.8843,-0.0598,-0.0133,0.5292,-0.5008,0.0326,0.8523,-0.0514,0.2034,0.4463,27
0.0043,0.415,-0.1834,-0.5742,-0.4028,0.1205,0.8824,-0.0375,-0.0181,0.5141,-0.4974,0.0312,0.8567,-0.0469,0.1992,0.4317,28
0.0043,0.415,-0.1834,-0.5742,-0.3991,0.1183,0.8792,-0.0163,-0.0232,0.4987,-0.493,0.03,0.86,-0.0443,0.1947,0.4167,28
0.0092,0.4428,-0.19,-0.5167,-0.3991,0.1183,0.8792,-0.0163,-0.0232,0.4987,-0.493,0.03,0.86,-0.0443,0.1947,0.4167,28
0.0144,0.4716,-0.1961,-0.4631,-0.3952,0.1166,0.8751,0.0035,-0.0285,0.4834,-0.4878,0.0289,0.8622,-0.0435,0.1901,0.4016,29
0.0144,0.4716,-0.1961,-0.4631,-0.3913,0.1154,0.87,0.0214,-0.0339,0.4684,-0.4818,0.028,0.8634,-0.0444,0.1853,0.3865,29
0.0199,0.5008,-0.2015,-0.4138,-0.3913,0.1154,0.87,0.0214,-0.0339,0.4684,-0.4818,0.028,0.8634,-0.0444,0.1853,0.3865,29
0.0199,0.5008,-0.2015,-0.4138,-0.3874,0.1148,0.8641,0.0372,-0.0393,0.4539,-0.4751,0.0273,0.8634,-0.0469,0.1806,0.3716,30
0.0258,0.5298,-0.2064,-0.3692,-0.3874,0.1148,0.8641,0.0372,-0.0393,0.4539,-0.4751,0.0273,0.8634,-0.0469,0.1806,0.3716,30
0.032,0.5578,-0.2109,-0.3294,-0.3834,0.1147,0.8575,0.0506,-0.0445,0.44,-0.4678,0.0268,0.8624,-0.0506,0.176,0.3573,30
0.032,0.5578,-0.2109,-0.3294,-0.3793,0.1151,0.8505,0.0616,-0.0493,0.4271,-0.46,0.0265,0.8604,-0.0556,0.1716,0.3435,31
0.0385,0.5845,-0.2149,-0.2946,-0.3793,0.1151,0.8505,0.0616,-0.0493,0.4271,-0.46,0.0265,0.8604,-0.0556,0.1716,0.3435,31
0.0454,0.609,-0.2186,-0.2648,-0.3752,0.116,0.8432,0.0699,-0.0538,0.4152,-0.4518,0.0264,0.8577,-0.0616,0.1673,0.3306,31
0.0454,0.609,-0.2186,-0.2648,-0.3711,0.1173,0.8356,0.0754,-0.0576,0.4044,-0.4435,0.0265,0.8542,-0.0684,0.1634,0.3186,32
0.0525,0.6311,-0.222,-0.2398,-0.3711,0.1173,0.8356,0.0754,-0.0576,0.4044,-0.4435,0.0265,0.8542,-0.0684,0.1634,0.3186,32
0.0598,0.6502,-0.2251,-0.2196,-0.367,0.1189,0.8281,0.0782,-0.0609,0.3949,-0.4351,0.0269,0.85,-0.0758,0.1596,0.3077,32
0.0598,0.6502,-0.2251,-0.2196,-0.363,0.1209,0.8208,0.0782,-0.0633,0.3867,-0.4267,0.0274,0.8455,-0.0836,0.1562,0.298,33
0.0674,0.666,-0.2281,-0.2039,-0.363,0.1209,0.8208,0.0782,-0.0633,0.3867,-0.4267,0.0274,0.8455,-0.0836,0.1562,0.298,33
0.0751,0.6782,-0.2309,-0.1923,-0.359,0.1232,0.8137,0.0755,-0.065,0.3798,-0.4186,0.0282,0.8406,-0.0917,0.1529,0.2895,33
0.0751,0.6782,-0.2309,-0.1923,-0.3551,0.1256,0.8071,0.0704,-0.0658,0.3742,-0.4108,0.0291,0.8355,-0.0998,0.1499,0.2823,34
0.0829,0.6866,-0.2335,-0.1843,-0.3551,0.1256,0.8071,0.0704,-0.0658,0.3742,-0.4108,0.0291,0.8355,-0.0998,0.1499,0.2823,34
0.0908,0.6911,-0.2361,-0.1796,-0.3513,0.1281,0.8011,0.0628,-0.0657,0.37,-0.4034,0.0302,0.8304,-0.1079,0.1471,0.2765,34
0.0908,0.6911,-0.2361,-0.1796,-0.3477,0.1307,0.7957,0.0531,-0.0646,0.367,-0.3967,0.0314,0.8254,-0.1157,0.1444,0.272,35
0.0988,0.6916,-0.2387,-0.1776,-0.3477,0.1307,0.7957,0.0531,-0.0646,0.367,-0.3967,0.0314,0.8254,-0.1157,0.1444,0.272,35
0.1068,0.6883,-0.2413,-0.1777,-0.3443,0.1333,0.7911,0.0416,-0.0626,0.3651,-0.3906,0.0328,0.8206,-0.1231,0.1419,0.2688,35
0.1068,0.6883,-0.2413,-0.1777,-0.341,0.1358,0.7874,0.0284,-0.0595,0.3643,-0.3852,0.0342,0.8162,-0.1301,0.1394,0.2668,36
0.1147,0.6811,-0.2438,-0.1795,-0.341,0.1358,0.7874,0.0284,-0.0595,0.3643,-0.3852,0.0342,0.8162,-0.1301,0.1394,0.2668,36
0.1225,0.6704,-0.2464,-0.1822,-0.338,0.1382,0.7845,0.014,-0.0555,0.3643,-0.3807,0.0357,0.8121,-0.1365,0.1369,0.2659,36
0.1225,0.6704,-0.2464,-0.1822,-0.3352,0.1405,0.7825,-0.0013,-0.0505,0.3651,-0.377,0.0374,0.8085,-0.1424,0.1344,0.2661,37
0.1302,0.6564,-0.2489,-0.1854,-0.3352,0.1405,0.7825,-0.0013,-0.0505,0.3651,-0.377,0.0374,0.8085,-0.1424,0.1344,0.2661,37
0.1377,0.6394,-0.2515,-0.1887,-0.3326,0.1425,0.7815,-0.0172,-0.0445,0.3664,-0.3742,0.0391,0.8055,-0.1476,0.1318,0.2671,37
0.1377,0.6394,-0.2515,-0.1887,-0.3302,0.1444,0.7813,-0.0333,-0.0376,0.3681,-0.3723,0.0408,0.803,-0.1521,0.1292,0.269,38
0.145,0.6198,-0.2541,-0.1914,-0.3302,0.1444,0.7813,-0.0333,-0.0376,0.3681,-0.3723,0.0408,0.803,-0.1521,0.1292,0.269,38
0.1522,0.598,-0.2567,-0.1934,-0.3281,0.146,0.782,-0.0492,-0.0298,0.3699,-0.3713,0.0426,0.8012,-0.1561,0.1266,0.2715,38
0.1522,0.598,-0.2567,-0.1934,-0.3264,0.1474,0.7835,-0.0645,-0.0211,0.3717,-0.3712,0.0445,0.7999,-0.1594,0.1239,0.2744,39
0.159,0.5744,-0.2593,-0.1942,-0.3264,0.1474,0.7835,-0.0645,-0.0211,0.3717,-0.3712,0.0445,0.7999,-0.1594,0.1239,0.2744,39
0.1656,0.5495,-0.2619,-0.1937,-0.3249,0.1486,0.7858,-0.0791,-0.0117,0.3733,-0.3719,0.0464,0.7992,-0.1622,0.1212,0.2777,39
0.1656,0.5495,-0.2619,-0.1937,-0.3238,0.1497,0.7886,-0.0926,-0.0016,0.3745,-0.3736,0.0484,0.7991,-0.1647,0.1184,0.2811,40
0.172,0.5237,-0.2644,-0.1916,-0.3238,0.1497,0.7886,-0.0926,-0.0016,0.3745,-0.3736,0.0484,0.7991,-0.1647,0.1184,0.2811,40
0.178,0.4976,-0.2668,-0.1879,-0.3231,0.1506,0.792,-0.1047,0.0091,0.3751,-0.376,0.0504,0.7995,-0.1667,0.1158,0.2845,40
0.178,0.4976,-0.2668,-0.1879,-0.3228,0.1515,0.7958,-0.1154,0.0201,0.3749,-0.3792,0.0525,0.8003,-0.1686,0.1131,0.2879,41
0.1838,0.4716,-0.2692,-0.1824,-0.3228,0.1515,0.7958,-0.1154,0.0201,0.3749,-0.3792,0.0525,0.8003,-0.1686,0.1131,0.2879,41
0.1893,0.4462,-0.2714,-0.1751,-0.323,0.1524,0.7999,-0.1244,0.0314,0.3739,-0.3832,0.0545,0.8016,-0.1703,0.1106,0.291,41
0.1893,0.4462,-0.2714,-0.1751,-0.3237,0.1533,0.8042,-0.1318,0.0427,0.3718,-0.3879,0.0566,0.8032,-0.172,0.1083,0.2938,42
0.1945,0.4218,-0.2736,-0.1661,-0.3237,0.1533,0.8042,-0.1318,0.0427,0.3718,-0.3879,0.0566,0.8032,-0.172,0.1083,0.2938,42
0.1995,0.3988,-0.2755,-0.1554,-0.325,0.1543,0.8086,-0.1375,0.0539,0.3687,-0.3933,0.0585,0.8052,-0.1738,0.1061,0.2962,42
0.1995,0.3988,-0.2755,-0.1554,-0.3268,0.1555,0.8131,-0.1416,0.0647,0.3644,-0.3994,0.0604,0.8073,-0.1757,0.1041,0.2981,43
0.2042,0.3776,-0.2773,-0.143,-0.3268,0.1555,0.8131,-0.1416,0.0647,0.3644,-0.3994,0.0604,0.8073,-0.1757,0.1041,0.2981,43
0.2087,0.3584,-0.279,-0.129,-0.3294,0.1569,0.8175,-0.1443,0.0751,0.3591,-0.406,0.0622,0.8097,-0.1777,0.1022,0.2994,43
0.2087,0.3584,-0.279,-0.129,-0.3325,0.1585,0.8218,-0.1457,0.0847,0.3527,-0.4132,0.0638,0.8122,-0.18,0.1005,0.3,44
0.213,0.3414,-0.2804,-0.1136,-0.3325,0.1585,0.8218,-0.1457,0.0847,0.3527,-0.4132,0.0638,0.8122,-0.18,0.1005,0.3,44
0.213,0.3414,-0.2804,-0.1136,-0.3363,0.1604,0.826,-0.146,0.0934,0.3452,-0.421,0.0652,0.8149,-0.1825,0.0988,0.3001,44
0.2212,0.315,-0.2825,-0.0784,-0.3363,0.1604,0.826,-0.146,0.0934,0.3452,-0.421,0.0652,0.8149,-0.1825,0.0988,0.3001,45
0.2212,0.315,-0.2825,-0.0784,-0.3408,0.1626,0.83,-0.1454,0.1011,0.3369,-0.4292,0.0664,0.8177,-0.1853,0.0971,0.2994,45
0.2251,0.3057,-0.2833,-0.0589,-0.3408,0.1626,0.83,-0.1454,0.1011,0.3369,-0.4292,0.0664,0.8177,-0.1853,0.0971,0.2994,45
0.2289,0.2989,-0.2837,-0.0383,-0.3458,0.165,0.8339,-0.1443,0.1075,0.3278,-0.4378,0.0672,0.8206,-0.1882,0.0952,0.2981,46
0.2289,0.2989,-0.2837,-0.0383,-0.3515,0.1677,0.8376,-0.1428,0.1125,0.318,-0.4468,0.0677,0.8236,-0.1913,0.0932,0.2959,46
0.2327,0.2948,-0.2839,-0.0167,-0.3515,0.1677,0.8376,-0.1428,0.1125,0.318,-0.4468,0.0677,0.8236,-0.1913,0.0932,0.2959,46
0.2365,0.293,-0.2838,0.0058,-0.3576,0.1707,0.8413,-0.1412,0.1161,0.3076,-0.4561,0.0679,0.8268,-0.1945,0.0907,0.293,47
0.2365,0.293,-0.2838,0.0058,-0.3641,0.1738,0.8448,-0.1399,0.118,0.2969,-0.4656,0.0677,0.8301,-0.1976,0.0877,0.2893,47
0.2402,0.2935,-0.2834,0.0291,-0.3641,0.1738,0.8448,-0.1399,0.118,0.2969,-0.4656,0.0677,0.8301,-0.1976,0.0877,0.2893,47
0.244,0.296,-0.2828,0.0528,-0.371,0.177,0.8483,-0.139,0.1182,0.286,-0.4753,0.067,0.8337,-0.2007,0.0839,0.2847,48
0.244,0.296,-0.2828,0.0528,-0.3781,0.1804,0.8519,-0.1388,0.1167,0.275,-0.4851,0.0659,0.8374,-0.2037,0.0794,0.2792,48
0.2478,0.3003,-0.2818,0.077,-0.3781,0.1804,0.8519,-0.1388,0.1167,0.275,-0.4851,0.0659,0.8374,-0.2037,0.0794,0.2792,48
0.2517,0.306,-0.2806,0.1013,-0.3854,0.1837,0.8556,-0.1394,0.1134,0.2639,-0.4951,0.0644,0.8414,-0.2063,0.0738,0.2728,49
0.2517,0.306,-0.2806,0.1013,-0.3927,0.1871,0.8594,-0.1411,0.1084,0.253,-0.505,0.0625,0.8457,-0.2086,0.067,0.2653,49
0.2557,0.3129,-0.279,0.1255,-0.3927,0.1871,0.8594,-0.1411,0.1084,0.253,-0.505,0.0625,0.8457,-0.2086,0.067,0.2653,49
0.2598,0.3205,-0.2772,0.1493,-0.3999,0.1903,0.8635,-0.1439,0.1017,0.2423,-0.5149,0.0603,0.8503,-0.2104,0.0589,0.2567,50
0.2598,0.3205,-0.2772,0.1493,-0.407,0.1935,0.8679,-0.1479,0.0933,0.2318,-0.5248,0.0576,0.8552,-0.2115,0.0495,0.2469,50
0.2641,0.3286,-0.2751,0.1725,-0.407,0.1935,0.8679,-0.1479,0.0933,0.2318,-0.5248,0.0576,0.8552,-0.2115,0.0495,0.2469,51
0.2684,0.3368,-0.2727,0.1948,-0.4138,0.1964,0.8727,-0.1531,0.0834,0.2216,-0.5345,0.0547,0.8604,-0.2119,0.0384,0.236,51
0.2684,0.3368,-0.2727,0.1948,-0.4203,0.199,0.8781,-0.1596,0.0722,0.2116,-0.5441,0.0515,0.8661,-0.2113,0.0258,0.2237,51
0.2728,0.3447,-0.27,0.2159,-0.4203,0.199,0.8781,-0.1596,0.0722,0.2116,-0.5441,0.0515,0.8661,-0.2113,0.0258,0.2237,52
0.2774,0.3518,-0.2672,0.2354,-0.4265,0.2014,0.8839,-0.1674,0.0596,0.2017,-0.5536,0.0481,0.8721,-0.2098,0.0115,0.2102,52
0.2774,0.3518,-0.2672,0.2354,-0.4324,0.2035,0.8905,-0.1764,0.0461,0.1921,-0.5629,0.0445,0.8787,-0.2071,-0.0046,0.1953,52
0.2821,0.3577,-0.2641,0.2531,-0.4324,0.2035,0.8905,-0.1764,0.0461,0.1921,-0.5629,0.0445,0.8787,-0.2071,-0.0046,0.1953,53
0.2868,0.3623,-0.2608,0.2687,-0.4379,0.2051,0.8977,-0.1866,0.0316,0.1825,-0.5721,0.0407,0.8858,-0.203,-0.0226,0.1791,53
0.2868,0.3623,-0.2608,0.2687,-0.4431,0.2064,0.9058,-0.1978,0.0165,0.1729,-0.5811,0.0367,0.8936,-0.1975,-0.0424,0.1615,53
0.2916,0.3649,-0.2573,0.282,-0.4431,0.2064,0.9058,-0.1978,0.0165,0.1729,-0.5811,0.0367,0.8936,-0.1975,-0.0424,0.1615,54
0.2965,0.3655,-0.2537,0.2927,-0.448,0.2072,0.9148,-0.2101,0.0009,0.1631,-0.59,0.0326,0.902,-0.1904,-0.0642,0.1426,54
0.2965,0.3655,-0.2537,0.2927,-0.4526,0.2076,0.9246,-0.2232,-0.0148,0.153,-0.5987,0.0283,0.9112,-0.1816,-0.088,0.1223,54
0.3013,0.3638,-0.2501,0.3008,-0.4526,0.2076,0.9246,-0.2232,-0.0148,0.153,-0.5987,0.0283,0.9112,-0.1816,-0.088,0.1223,55
0.3062,0.3595,-0.2463,0.3063,-0.457,0.2073,0.9354,-0.2369,-0.0304,0.1425,-0.6071,0.0239,0.9211,-0.1711,-0.1136,0.1009,55
0.3062,0.3595,-0.2463,0.3063,-0.4613,0.2063,0.9471,-0.2509,-0.0458,0.1314,-0.6154,0.0194,0.9319,-0.1589,-0.141,0.0782,55
0.3109,0.3527,-0.2425,0.3091,-0.4613,0.2063,0.9471,-0.2509,-0.0458,0.1314,-0.6154,0.0194,0.9319,-0.1589,-0.141,0.0782,56
0.3156,0.3432,-0.2387,0.3093,-0.4655,0.2047,0.9597,-0.265,-0.0606,0.1197,-0.6233,0.0148,0.9433,-0.1449,-0.1698,0.0545,56
0.3156,0.3432,-0.2387,0.3093,-0.4696,0.2022,0.9731,-0.2789,-0.0747,0.1072,-0.6308,0.0101,0.9554,-0.1295,-0.2,0.0299,56
0.3202,0.3311,-0.2349,0.3073,-0.4696,0.2022,0.9731,-0.2789,-0.0747,0.1072,-0.6308,0.0101,0.9554,-0.1295,-0.2,0.0299,57
0.3245,0.3165,-0.2312,0.3032,-0.4736,0.1989,0.9871,-0.2921,-0.0879,0.0938,-0.6379,0.0053,0.9681,-0.1128,-0.2309,0.0046,57
0.3245,0.3165,-0.2312,0.3032,-0.4778,0.1946,1.0017,-0.3044,-0.1001,0.0795,-0.6444,0.0005,0.9812,-0.095,-0.2623,-0.0213,57
0.3287,0.2995,-0.2275,0.2974,-0.4778,0.1946,1.0017,-0.3044,-0.1001,0.0795,-0.6444,0.0005,0.9812,-0.095,-0.2623,-0.0213,58
0.3327,0.2801,-0.224,0.2902,-0.482,0.1895,1.0167,-0.3152,-0.1111,0.0641,-0.6504,-0.0043,0.9947,-0.0765,-0.2936,-0.0475,58
0.3327,0.2801,-0.224,0.2902,-0.4863,0.1834,1.0318,-0.3244,-0.1208,0.0478,-0.6558,-0.0091,1.0082,-0.0577,-0.3243,-0.0738,58
0.3363,0.2586,-0.2205,0.2822,-0.4863,0.1834,1.0318,-0.3244,-0.1208,0.0478,-0.6558,-0.0091,1.0082,-0.0577,-0.3243,-0.0738,59
0.3397,0.2349,-0.2171,0.2737,-0.4907,0.1765,1.047,-0.3316,-0.1292,0.0304,-0.6605,-0.014,1.0216,-0.0388,-0.3538,-0.1,59
0.3397,0.2349,-0.2171,0.2737,-0.4953,0.1687,1.0619,-0.3364,-0.1363,0.012,-0.6646,-0.0189,1.0346,-0.0204,-0.3817,-0.1257,59
0.3428,0.2094,-0.2138,0.2653,-0.4953,0.1687,1.0619,-0.3364,-0.1363,0.012,-0.6646,-0.0189,1.0346,-0.0204,-0.3817,-0.1257,60
0.3455,0.1819,-0.2107,0.2574,-0.4999,0.16,1.0763,-0.3385,-0.1421,-0.0074,-0.6678,-0.0237,1.047,-0.0027,-0.4074,-0.1509,60
0.3455,0.1819,-0.2107,0.2574,-0.5046,0.1507,1.0899,-0.3377,-0.1465,-0.0276,-0.6703,-0.0286,1.0586,0.0138,-0.4303,-0.1753,60
0.3478,0.1527,-0.2076,0.2506,-0.5046,0.1507,1.0899,-0.3377,-0.1465,-0.0276,-0.6703,-0.0286,1.0586,0.0138,-0.4303,-0.1753,61
0.3497,0.1217,-0.2045,0.2453,-0.5094,0.1407,1.1025,-0.3338,-0.1498,-0.0487,-0.672,-0.0335,1.0689,0.0288,-0.4501,-0.1986,61
0.3497,0.1217,-0.2045,0.2453,-0.5141,0.1301,1.1138,-0.3266,-0.152,-0.0706,-0.6728,-0.0383,1.0778,0.0419,-0.4662,-0.2207,61
0.3512,0.0888,-0.2016,0.2419,-0.5141,0.1301,1.1138,-0.3266,-0.152,-0.0706,-0.6728,-0.0383,1.0778,0.0419,-0.4662,-0.2207,62
0.3522,0.0541,-0.1986,0.2407,-0.5187,0.1191,1.1234,-0.3159,-0.1532,-0.0932,-0.6727,-0.0431,1.0849,0.0529,-0.4785,-0.2415,62
0.3522,0.0541,-0.1986,0.2407,-0.523,0.1077,1.1311,-0.3017,-0.1535,-0.1164,-0.6717,-0.0478,1.09,0.0614,-0.4865,-0.2608,62
0.3528,0.0174,-0.1956,0.2422,-0.523,0.1077,1.1311,-0.3017,-0.1535,-0.1164,-0.6717,-0.0478,1.09,0.0614,-0.4865,-0.2608,63
0.3528,-0.0212,-0.1926,0.2465,-0.5271,0.0962,1.1367,-0.2839,-0.1532,-0.14,-0.6698,-0.0524,1.0927,0.0674,-0.4901,-0.2786,63
0.3528,-0.0212,-0.1926,0.2465,-0.5308,0.0846,1.1399,-0.2626,-0.1523,-0.164,-0.6669,-0.057,1.093,0.0706,-0.4892,-0.2949,63
0.3522,-0.0619,-0.1895,0.2537,-0.5308,0.0846,1.1399,-0.2626,-0.1523,-0.164,-0.6669,-0.057,1.093,0.0706,-0.4892,-0.2949,64
0.3511,-0.1048,-0.1862,0.2641,-0.534,0.073,1.1405,-0.2378,-0.151,-0.1882,-0.6631,-0.0615,1.0905,0.071,-0.4839,-0.3096,64
0.3511,-0.1048,-0.1862,0.2641,-0.5367,0.0617,1.1383,-0.2098,-0.1496,-0.2126,-0.6585,-0.066,1.0852,0.0687,-0.4742,-0.3228,64
0.3494,-0.1499,-0.1828,0.2775,-0.5367,0.0617,1.1383,-0.2098,-0.1496,-0.2126,-0.6585,-0.066,1.0852,0.0687,-0.4742,-0.3228,65
0.347,-0.1972,-0.1792,0.2939,-0.5388,0.0507,1.1333,-0.1787,-0.148,-0.2369,-0.6529,-0.0706,1.077,0.0639,-0.4603,-0.3347,65
0.347,-0.1972,-0.1792,0.2939,-0.5403,0.0403,1.1255,-0.145,-0.1465,-0.2611,-0.6466,-0.0752,1.0659,0.0567,-0.4426,-0.3452,65
0.344,-0.2469,-0.1754,0.3132,-0.5403,0.0403,1.1255,-0.145,-0.1465,-0.2611,-0.6466,-0.0752,1.0659,0.0567,-0.4426,-0.3452,66
0.3402,-0.2989,-0.1713,0.3352,-0.5411,0.0305,1.1148,-0.1091,-0.1453,-0.285,-0.6396,-0.08,1.0521,0.0475,-0.4216,-0.3546,66
0.3402,-0.2989,-0.1713,0.3352,-0.5412,0.0215,1.1014,-0.0714,-0.1443,-0.3084,-0.632,-0.0849,1.0356,0.0367,-0.3977,-0.363,66
0.3356,-0.3533,-0.1669,0.3595,-0.5412,0.0215,1.1014,-0.0714,-0.1443,-0.3084,-0.632,-0.0849,1.0356,0.0367,-0.3977,-0.363,67
0.3303,-0.41,-0.1621,0.3858,-0.5408,0.0134,1.0855,-0.0327,-0.1436,-0.3312,-0.6238,-0.0902,1.0166,0.0249,-0.3715,-0.3706,67
0.3303,-0.41,-0.1621,0.3858,-0.5397,0.0063,1.0671,0.0066,-0.1434,-0.3532,-0.6151,-0.0957,0.9955,0.0125,-0.3435,-0.3774,67
0.3241,-0.4689,-0.157,0.4138,-0.5397,0.0063,1.0671,0.0066,-0.1434,-0.3532,-0.6151,-0.0957,0.9955,0.0125,-0.3435,-0.3774,68
0.3171,-0.5299,-0.1516,0.4429,-0.538,0.0002,1.0467,0.0456,-0.1434,-0.3742,-0.606,-0.1016,0.9726,0.0003,-0.3145,-0.3838,68
0.3171,-0.5299,-0.1516,0.4429,-0.5358,-0.0048,1.0244,0.0838,-0.1439,-0.394,-0.5965,-0.1077,0.9481,-0.0113,-0.2851,-0.3898,68
0.3091,-0.5925,-0.1457,0.4726,-0.5358,-0.0048,1.0244,0.0838,-0.1439,-0.394,-0.5965,-0.1077,0.9481,-0.0113,-0.2851,-0.3898,69
0.3003,-0.6563,-0.1395,0.5025,-0.5331,-0.0087,1.0008,0.1205,-0.1445,-0.4126,-0.5868,-0.1142,0.9226,-0.0217,-0.2558,-0.3956,69
0.3003,-0.6563,-0.1395,0.5025,-0.53,-0.0116,0.9761,0.1549,-0.1452,-0.4297,-0.5768,-0.1209,0.8964,-0.0302,-0.2272,-0.4013,69
0.2906,-0.721,-0.1329,0.532,-0.53,-0.0116,0.9761,0.1549,-0.1452,-0.4297,-0.5768,-0.1209,0.8964,-0.0302,-0.2272,-0.4013,70
0.2906,-0.721,-0.1329,0.532,-0.5266,-0.0134,0.9508,0.1866,-0.146,-0.4453,-0.5667,-0.1278,0.8699,-0.0365,-0.1997,-0.4071,70
0.2685,-0.8502,-0.1187,0.5878,-0.5266,-0.0134,0.9508,0.1866,-0.146,-0.4453,-0.5667,-0.1278,0.8699,-0.0365,-0.1997,-0.4071,70
0.2561,-0.9133,-0.1111,0.6129,-0.5189,-0.0144,0.8999,0.2399,-0.1467,-0.4711,-0.5461,-0.1418,0.8182,-0.0408,-0.1499,-0.4191,71
0.2561,-0.9133,-0.1111,0.6129,-0.5148,-0.0136,0.8752,0.2607,-0.1464,-0.4812,-0.5358,-0.1487,0.7937,-0.0381,-0.1281,-0.4255,71
0.2428,-0.9746,-0.1031,0.6357,-0.5148,-0.0136,0.8752,0.2607,-0.1464,-0.4812,-0.5358,-0.1487,0.7937,-0.0381,-0.1281,-0.4255,71
0.2288,-1.0332,-0.0949,0.6556,-0.5107,-0.0122,0.8514,0.2773,-0.1454,-0.4894,-0.5256,-0.1553,0.7707,-0.0321,-0.1087,-0.4321,72
0.2288,-1.0332,-0.0949,0.6556,-0.5065,-0.0103,0.8289,0.2895,-0.1436,-0.4956,-0.5154,-0.1615,0.7496,-0.0226,-0.0916,-0.4389,72
0.2139,-1.0885,-0.0865,0.6723,-0.5065,-0.0103,0.8289,0.2895,-0.1436,-0.4956,-0.5154,-0.1615,0.7496,-0.0226,-0.0916,-0.4389,72
0.1984,-1.1395,-0.0779,0.6855,-0.5024,-0.0079,0.808,0.2975,-0.1409,-0.4999,-0.5054,-0.1672,0.7307,-0.0098,-0.0769,-0.4459,73
0.1984,-1.1395,-0.0779,0.6855,-0.4984,-0.0052,0.789,0.3013,-0.137,-0.5024,-0.4956,-0.1723,0.7142,0.0062,-0.0645,-0.4531,73
0.1822,-1.1857,-0.0692,0.6949,-0.4984,-0.0052,0.789,0.3013,-0.137,-0.5024,-0.4956,-0.1723,0.7142,0.0062,-0.0645,-0.4531,73
0.1655,-1.2264,-0.0603,0.7006,-0.4945,-0.0023,0.7721,0.3011,-0.132,-0.503,-0.4861,-0.1766,0.7003,0.0251,-0.0543,-0.4604,74
0.1655,-1.2264,-0.0603,0.7006,-0.4908,0.0008,0.7574,0.2972,-0.1259,-0.5019,-0.4768,-0.1802,0.6893,0.0467,-0.0459,-0.4676,74
0.1482,-1.2608,-0.0515,0.7024,-0.4908,0.0008,0.7574,0.2972,-0.1259,-0.5019,-0.4768,-0.1802,0.6893,0.0467,-0.0459,-0.4676,74
0.1307,-1.2886,-0.0426,0.7004,-0.4873,0.0039,0.7451,0.2901,-0.1184,-0.4992,-0.468,-0.1828,0.6811,0.0706,-0.0393,-0.4747,75
0.1307,-1.2886,-0.0426,0.7004,-0.4841,0.0069,0.7352,0.2801,-0.1098,-0.495,-0.4596,-0.1845,0.6759,0.0962,-0.0341,-0.4815,75
0.1128,-1.3093,-0.0338,0.6948,-0.4841,0.0069,0.7352,0.2801,-0.1098,-0.495,-0.4596,-0.1845,0.6759,0.0962,-0.0341,-0.4815,75
0.0947,-1.3226,-0.0251,0.6858,-0.4811,0.0097,0.7278,0.2677,-0.1,-0.4895,-0.4516,-0.1852,0.6736,0.1231,-0.0301,-0.4881,76
0.0947,-1.3226,-0.0251,0.6858,-0.4783,0.0123,0.7227,0.2534,-0.089,-0.4829,-0.4441,-0.185,0.6741,0.1508,-0.027,-0.4941,76
0.0766,-1.3283,-0.0166,0.6737,-0.4783,0.0123,0.7227,0.2534,-0.089,-0.4829,-0.4441,-0.185,0.6741,0.1508,-0.027,-0.4941,76
0.0585,-1.3262,-0.0082,0.6588,-0.4735,0.0166,0.7195,0.2213,-0.0642,-0.467,-0.4305,-0.1819,0.6829,0.2062,-0.022,-0.5044,77
0.0585,-1.3262,-0.0082,0.6588,-0.4714,0.0181,0.721,0.2045,-0.0505,-0.458,-0.4245,-0.179,0.6907,0.2328,-0.0195,-0.5084,77
0.0406,-1.3165,0,0.6417,-0.4714,0.0181,0.721,0.2045,-0.0505,-0.458,-0.4245,-0.179,0.6907,0.2328,-0.0195,-0.5084,77
0.0229,-1.2992,0.0079,0.6227,-0.4695,0.0192,0.7243,0.188,-0.0361,-0.4486,-0.4189,-0.1755,0.7004,0.2581,-0.0166,-0.5115,78
0.0229,-1.2992,0.0079,0.6227,-0.4678,0.0199,0.7293,0.172,-0.0213,-0.4388,-0.4138,-0.1713,0.7117,0.2814,-0.0131,-0.5137,78
0.0055,-1.2748,0.0156,0.6024,-0.4678,0.0199,0.7293,0.172,-0.0213,-0.4388,-0.4138,-0.1713,0.7117,0.2814,-0.0131,-0.5137,78
0.0055,-1.2748,0.0156,0.6024,-0.4662,0.0201,0.7356,0.1571,-0.0061,-0.4289,-0.4091,-0.1665,0.7243,0.3024,-0.0085,-0.5149,79
-0.0279,-1.2061,0.0301,0.5602,-0.4662,0.0201,0.7356,0.1571,-0.0061,-0.4289,-0.4091,-0.1665,0.7243,0.3024,-0.0085,-0.5149,79
-0.0438,-1.163,0.0369,0.5393,-0.4647,0.0198,0.7431,0.1436,0.0093,-0.4189,-0.4047,-0.1614,0.7379,0.3207,-0.0028,-0.5149,79
-0.0438,-1.163,0.0369,0.5393,-0.4633,0.019,0.7513,0.1318,0.0247,-0.4091,-0.4007,-0.156,0.752,0.3361,0.0044,-0.5139,80
-0.059,-1.115,0.0435,0.5192,-0.4633,0.019,0.7513,0.1318,0.0247,-0.4091,-0.4007,-0.156,0.752,0.3361,0.0044,-0.5139,80
-0.0734,-1.0628,0.0499,0.5003,-0.4619,0.0178,0.7602,0.122,0.0401,-0.3994,-0.3971,-0.1505,0.7663,0.3482,0.0131,-0.5117,80
-0.0872,-1.0073,0.056,0.4832,-0.4605,0.0162,0.7694,0.1142,0.0552,-0.39,-0.3936,-0.1449,0.7806,0.357,0.0235,-0.5084,81
-0.1001,-0.9492,0.0619,0.468,-0.4591,0.0142,0.7787,0.1085,0.0699,-0.3809,-0.3904,-0.1395,0.7944,0.3623,0.0355,-0.504,81
-0.1122,-0.8894,0.0676,0.4552,-0.4576,0.0119,0.7878,0.1051,0.0842,-0.3723,-0.3874,-0.1342,0.8075,0.3643,0.0492,-0.4984,81
-0.1122,-0.8894,0.0676,0.4552,-0.456,0.0093,0.7966,0.1039,0.0979,-0.364,-0.3846,-0.1293,0.8197,0.363,0.0643,-0.4919,82
-0.1235,-0.8286,0.0732,0.4448,-0.456,0.0093,0.7966,0.1039,0.0979,-0.364,-0.3846,-0.1293,0.8197,0.363,0.0643,-0.4919,82
-0.1339,-0.7678,0.0787,0.4369,-0.4543,0.0065,0.8048,0.1048,0.111,-0.3562,-0.3819,-0.1248,0.8307,0.3586,0.0808,-0.4843,82
-0.1435,-0.7075,0.0841,0.4316,-0.4525,0.0035,0.8123,0.1076,0.1234,-0.3489,-0.3794,-0.1208,0.8404,0.3514,0.0985,-0.4758,83
-0.1523,-0.6486,0.0895,0.4287,-0.4506,0.0003,0.819,0.1122,0.1351,-0.3421,-0.3769,-0.1174,0.8487,0.3416,0.1169,-0.4665,83
-0.1603,-0.5917,0.0949,0.428,-0.4486,-0.0029,0.8247,0.1183,0.146,-0.3357,-0.3747,-0.1146,0.8553,0.3296,0.1359,-0.4565,83
-0.1676,-0.5373,0.1002,0.4292,-0.4465,-0.0061,0.8295,0.1258,0.1562,-0.3298,-0.3725,-0.1124,0.8604,0.3158,0.1552,-0.4458,84
-0.1676,-0.5373,0.1002,0.4292,-0.4443,-0.0092,0.8332,0.1343,0.1657,-0.3242,-0.3705,-0.1109,0.8638,0.3006,0.1743,-0.4346,84
-0.1741,-0.486,0.1056,0.432,-0.4443,-0.0092,0.8332,0.1343,0.1657,-0.3242,-0.3705,-0.1109,0.8638,0.3006,0.1743,-0.4346,84
-0.18,-0.4382,0.111,0.4358,-0.4421,-0.0123,0.8358,0.1436,0.1745,-0.319,-0.3686,-0.1101,0.8657,0.2845,0.193,-0.4229,85
-0.1853,-0.3943,0.1165,0.4404,-0.4399,-0.0153,0.8374,0.1535,0.1826,-0.3142,-0.3669,-0.11,0.8661,0.2678,0.211,-0.4108,85
-0.1901,-0.3545,0.1221,0.4452,-0.4357,-0.0206,0.8378,0.1736,0.1973,-0.3051,-0.3639,-0.1116,0.8628,0.2343,0.2434,-0.386,85
-0.1901,-0.3545,0.1221,0.4452,-0.4357,-0.0206,0.8378,0.1736,0.1973,-0.3051,-0.3639,-0.1116,0.8628,0.2343,0.2434,-0.386,86
-0.1943,-0.3189,0.1277,0.4497,-0.4337,-0.023,0.8366,0.1834,0.2038,-0.3008,-0.3627,-0.1132,0.8593,0.2183,0.2574,-0.3735,86
-0.1981,-0.2877,0.1334,0.4535,-0.4319,-0.0252,0.8348,0.1928,0.2101,-0.2965,-0.3616,-0.1154,0.8549,0.2033,0.2696,-0.3609,86
-0.1981,-0.2877,0.1334,0.4535,-0.4319,-0.0252,0.8348,0.1928,0.2101,-0.2965,-0.3616,-0.1154,0.8549,0.2033,0.2696,-0.3609,87
-0.2015,-0.2609,0.1391,0.4562,-0.4303,-0.0271,0.8322,0.2017,0.2159,-0.2922,-0.3607,-0.118,0.8496,0.1895,0.2798,-0.3484,87
-0.2046,-0.2383,0.1448,0.4574,-0.4289,-0.0287,0.8291,0.2097,0.2216,-0.2879,-0.3599,-0.1209,0.8438,0.1771,0.2879,-0.336,87
-0.2046,-0.2383,0.1448,0.4574,-0.4289,-0.0287,0.8291,0.2097,0.2216,-0.2879,-0.3599,-0.1209,0.8438,0.1771,0.2879,-0.336,88
-0.2074,-0.2199,0.1506,0.4568,-0.4278,-0.0302,0.8256,0.2169,0.227,-0.2834,-0.3594,-0.124,0.8375,0.1663,0.294,-0.3237,88
-0.21,-0.2052,0.1563,0.4543,-0.4269,-0.0314,0.8218,0.2231,0.2322,-0.2787,-0.359,-0.1274,0.8309,0.1572,0.2978,-0.3117,88
-0.21,-0.2052,0.1563,0.4543,-0.4269,-0.0314,0.8218,0.2231,0.2322,-0.2787,-0.359,-0.1274,0.8309,0.1572,0.2978,-0.3117,89
-0.2125,-0.194,0.162,0.4497,-0.4265,-0.0323,0.8177,0.2283,0.2373,-0.2737,-0.3587,-0.1309,0.8243,0.1499,0.2996,-0.2998,89
-0.2148,-0.186,0.1676,0.4429,-0.4264,-0.0331,0.8136,0.2325,0.2422,-0.2684,-0.3586,-0.1345,0.8177,0.1445,0.2994,-0.2881,89
-0.2148,-0.186,0.1676,0.4429,-0.4264,-0.0331,0.8136,0.2325,0.2422,-0.2684,-0.3586,-0.1345,0.8177,0.1445,0.2994,-0.2881,90
-0.217,-0.1806,0.1731,0.4341,-0.4267,-0.0337,0.8095,0.2357,0.247,-0.2628,-0.3586,-0.1381,0.8114,0.1407,0.2971,-0.2765,90
-0.2192,-0.1773,0.1785,0.4233,-0.4273,-0.0341,0.8054,0.2378,0.2516,-0.2567,-0.3587,-0.1416,0.8055,0.1387,0.2931,-0.2652,90
-0.2192,-0.1773,0.1785,0.4233,-0.4273,-0.0341,0.8054,0.2378,0.2516,-0.2567,-0.3587,-0.1416,0.8055,0.1387,0.2931,-0.2652,91
-0.2213,-0.1758,0.1837,0.4108,-0.4284,-0.0344,0.8015,0.239,0.2559,-0.2503,-0.359,-0.1449,0.8,0.1382,0.2875,-0.254,91
-0.2234,-0.1754,0.1887,0.3969,-0.43,-0.0346,0.7979,0.2392,0.2599,-0.2433,-0.3593,-0.1481,0.7952,0.1391,0.2803,-0.2429,91
-0.2234,-0.1754,0.1887,0.3969,-0.43,-0.0346,0.7979,0.2392,0.2599,-0.2433,-0.3593,-0.1481,0.7952,0.1391,0.2803,-0.2429,92
-0.2255,-0.1758,0.1936,0.3818,-0.4319,-0.0347,0.7945,0.2386,0.2635,-0.236,-0.3598,-0.1511,0.7911,0.1412,0.2719,-0.2319,92
-0.2276,-0.1764,0.1983,0.3661,-0.4342,-0.0348,0.7915,0.2373,0.2666,-0.2282,-0.3603,-0.1538,0.7877,0.1443,0.2623,-0.221,92
-0.2276,-0.1764,0.1983,0.3661,-0.4342,-0.0348,0.7915,0.2373,0.2666,-0.2282,-0.3603,-0.1538,0.7877,0.1443,0.2623,-0.221,93
-0.2297,-0.1768,0.2027,0.35,-0.4369,-0.0348,0.7888,0.2353,0.2691,-0.22,-0.3609,-0.1563,0.785,0.1482,0.2519,-0.21,93
-0.2318,-0.1766,0.207,0.3341,-0.44,-0.0349,0.7864,0.2327,0.271,-0.2113,-0.3617,-0.1585,0.7831,0.1526,0.2407,-0.199,93
-0.2318,-0.1766,0.207,0.3341,-0.44,-0.0349,0.7864,0.2327,0.271,-0.2113,-0.3617,-0.1585,0.7831,0.1526,0.2407,-0.199,94
-0.2339,-0.1754,0.211,0.3187,-0.4434,-0.0349,0.7844,0.2296,0.272,-0.2023,-0.3625,-0.1605,0.7819,0.1574,0.2291,-0.1879,94
-0.236,-0.173,0.2149,0.3043,-0.4471,-0.035,0.7828,0.2262,0.272,-0.193,-0.3634,-0.1621,0.7815,0.1623,0.217,-0.1766,94
-0.236,-0.173,0.2149,0.3043,-0.4471,-0.035,0.7828,0.2262,0.272,-0.193,-0.3634,-0.1621,0.7815,0.1623,0.217,-0.1766,95
-0.2381,-0.169,0.2186,0.2913,-0.4511,-0.0351,0.7816,0.2225,0.2711,-0.1834,-0.3645,-0.1636,0.7816,0.1671,0.2047,-0.1652,95
-0.2401,-0.1632,0.2221,0.28,-0.4554,-0.0352,0.7807,0.2185,0.2689,-0.1736,-0.3658,-0.1648,0.7824,0.1717,0.1922,-0.1536,95
-0.2401,-0.1632,0.2221,0.28,-0.4554,-0.0352,0.7807,0.2185,0.2689,-0.1736,-0.3658,-0.1648,0.7824,0.1717,0.1922,-0.1536,96
-0.242,-0.1553,0.2255,0.2708,-0.46,-0.0353,0.7801,0.2142,0.2655,-0.1636,-0.3672,-0.1658,0.7837,0.176,0.1796,-0.1418,96
-0.2438,-0.1452,0.2288,0.2638,-0.4648,-0.0354,0.7799,0.2097,0.2608,-0.1534,-0.3689,-0.1667,0.7854,0.1799,0.167,-0.1297,96
-0.2438,-0.1452,0.2288,0.2638,-0.4648,-0.0354,0.7799,0.2097,0.2608,-0.1534,-0.3689,-0.1667,0.7854,0.1799,0.167,-0.1297,97
-0.2455,-0.1325,0.232,0.2594,-0.4648,-0.0354,0.7799,0.2097,0.2608,-0.1534,-0.3689,-0.1667,0.7854,0.1799,0.167,-0.1297,97
-0.247,-0.1173,0.2352,0.2576,-0.4751,-0.0356,0.7806,0.1996,0.247,-0.1329,-0.3729,-0.1682,0.7898,0.1861,0.1417,-0.1047,97
-0.247,-0.1173,0.2352,0.2576,-0.4751,-0.0356,0.7806,0.1996,0.247,-0.1329,-0.3729,-0.1682,0.7898,0.1861,0.1417,-0.1047,98
-0.2483,-0.0994,0.2384,0.2586,-0.4805,-0.0355,0.7816,0.194,0.2379,-0.1226,-0.3753,-0.169,0.7923,0.1885,0.129,-0.0918,98
-0.2493,-0.0786,0.2416,0.2625,-0.486,-0.0354,0.783,0.1877,0.2273,-0.1123,-0.378,-0.1697,0.7951,0.1905,0.1161,-0.0786,98
-0.2493,-0.0786,0.2416,0.2625,-0.486,-0.0354,0.783,0.1877,0.2273,-0.1123,-0.378,-0.1697,0.7951,0.1905,0.1161,-0.0786,99
-0.2501,-0.0549,0.2449,0.2691,-0.4916,-0.0351,0.7849,0.1808,0.2152,-0.102,-0.381,-0.1704,0.7979,0.1921,0.103,-0.0651,99
-0.2506,-0.0283,0.2483,0.2785,-0.4973,-0.0346,0.7873,0.1732,0.2017,-0.0916,-0.3843,-0.1712,0.801,0.1934,0.0896,-0.0515,99
-0.2506,-0.0283,0.2483,0.2785,-0.4973,-0.0346,0.7873,0.1732,0.2017,-0.0916,-0.3843,-0.1712,0.801,0.1934,0.0896,-0.0515,100
-0.2507,0.0011,0.2518,0.2905,-0.5029,-0.0341,0.7903,0.1648,0.1869,-0.0813,-0.3879,-0.172,0.8041,0.1946,0.0758,-0.0377,0
-0.2504,0.0332,0.2555,0.3048,-0.5084,-0.0333,0.7939,0.1555,0.1709,-0.0709,-0.3918,-0.1728,0.8074,0.1958,0.0614,-0.0238,0
-0.2504,0.0332,0.2555,0.3048,-0.5084,-0.0333,0.7939,0.1555,0.1709,-0.0709,-0.3918,-0.1728,0.8074,0.1958,0.0614,-0.0238,1
-0.2497,0.0679,0.2594,0.3213,-0.5138,-0.0325,0.7981,0.1454,0.1537,-0.0605,-0.396,-0.1736,0.8109,0.197,0.0465,-0.0099,1
-0.2485,0.1049,0.2635,0.3395,-0.519,-0.0315,0.8031,0.1345,0.1355,-0.05,-0.4006,-0.1744,0.8146,0.1984,0.0309,0.0039,1
-0.2485,0.1049,0.2635,0.3395,-0.519,-0.0315,0.8031,0.1345,0.1355,-0.05,-0.4006,-0.1744,0.8146,0.1984,0.0309,0.0039,2
-0.2469,0.1437,0.2679,0.3592,-0.5239,-0.0304,0.8088,0.1228,0.1165,-0.0396,-0.4054,-0.1751,0.8186,0.2,0.0145,0.0174,2
-0.2448,0.184,0.2725,0.3799,-0.5285,-0.0292,0.8152,0.1105,0.0968,-0.0291,-0.4104,-0.1757,0.8229,0.2019,-0.0028,0.0307,2
-0.2448,0.184,0.2725,0.3799,-0.5285,-0.0292,0.8152,0.1105,0.0968,-0.0291,-0.4104,-0.1757,0.8229,0.2019,-0.0028,0.0307,2
-0.2421,0.2252,0.2774,0.4011,-0.5285,-0.0292,0.8152,0.1105,0.0968,-0.0291,-0.4104,-0.1757,0.8229,0.2019,-0.0028,0.0307,3
-0.239,0.2665,0.2826,0.4224,-0.5367,-0.0265,0.8304,0.0843,0.0558,-0.0082,-0.4211,-0.1763,0.8329,0.2067,-0.0399,0.0559,3
-0.239,0.2665,0.2826,0.4224,-0.5367,-0.0265,0.8304,0.0843,0.0558,-0.0082,-0.4211,-0.1763,0.8329,0.2067,-0.0399,0.0559,3
-0.2353,0.3072,0.288,0.4434,-0.5403,-0.0252,0.839,0.0708,0.0348,0.0022,-0.4267,-0.1763,0.8387,0.2095,-0.0598,0.0676,4
-0.2312,0.3464,0.2937,0.4635,-0.5435,-0.0239,0.8483,0.0573,0.0137,0.0124,-0.4325,-0.1761,0.8451,0.2126,-0.0805,0.0787,4
-0.2312,0.3464,0.2937,0.4635,-0.5435,-0.0239,0.8483,0.0573,0.0137,0.0124,-0.4325,-0.1761,0.8451,0.2126,-0.0805,0.0787,4
-0.2265,0.3832,0.2996,0.4822,-0.5463,-0.0226,0.8582,0.0439,-0.0074,0.0224,-0.4383,-0.1756,0.8521,0.2159,-0.1019,0.0891,5
-0.2215,0.4168,0.3057,0.499,-0.5487,-0.0213,0.8687,0.0308,-0.0284,0.0322,-0.4441,-0.1749,0.8599,0.2193,-0.124,0.0986,5
-0.2215,0.4168,0.3057,0.499,-0.5487,-0.0213,0.8687,0.0308,-0.0284,0.0322,-0.4441,-0.1749,0.8599,0.2193,-0.124,0.0986,5
-0.216,0.4462,0.312,0.5134,-0.5508,-0.0201,0.8797,0.0182,-0.0491,0.0416,-0.45,-0.1738,0.8683,0.2226,-0.1465,0.1073,5
-0.2102,0.4709,0.3184,0.5249,-0.5527,-0.019,0.891,0.0062,-0.0694,0.0507,-0.4558,-0.1725,0.8775,0.2259,-0.1694,0.1151,6
-0.2102,0.4709,0.3184,0.5249,-0.5527,-0.019,0.891,0.0062,-0.0694,0.0507,-0.4558,-0.1725,0.8775,0.2259,-0.1694,0.1151,6
-0.2042,0.49,0.325,0.5332,-0.5544,-0.0179,0.9028,-0.005,-0.0892,0.0592,-0.4615,-0.171,0.8875,0.229,-0.1925,0.122,6
-0.1979,0.5032,0.3316,0.5379,-0.5559,-0.0167,0.9148,-0.0155,-0.1084,0.0672,-0.4671,-0.1692,0.8983,0.2319,-0.2157,0.1279,7
-0.1979,0.5032,0.3316,0.5379,-0.5559,-0.0167,0.9148,-0.0155,-0.1084,0.0672,-0.4671,-0.1692,0.8983,0.2319,-0.2157,0.1279,7
-0.1916,0.5101,0.3383,0.5387,-0.5559,-0.0167,0.9148,-0.0155,-0.1084,0.0672,-0.4671,-0.1692,0.8983,0.2319,-0.2157,0.1279,7
-0.1852,0.5105,0.3449,0.5354,-0.5591,-0.0144,0.9395,-0.0342,-0.1448,0.0814,-0.478,-0.165,0.9221,0.2364,-0.2616,0.1372,8
-0.1852,0.5105,0.3449,0.5354,-0.5591,-0.0144,0.9395,-0.0342,-0.1448,0.0814,-0.478,-0.165,0.9221,0.2364,-0.2616,0.1372,8
-0.1788,0.5045,0.3514,0.5279,-0.5591,-0.0144,0.9395,-0.0342,-0.1448,0.0814,-0.478,-0.165,0.9221,0.2364,-0.2616,0.1372,8
-0.1726,0.4921,0.3578,0.5161,-0.5627,-0.0116,0.9646,-0.0501,-0.1781,0.0928,-0.4881,-0.1599,0.9487,0.2391,-0.3054,0.1432,8
-0.1726,0.4921,0.3578,0.5161,-0.5627,-0.0116,0.9646,-0.0501,-0.1781,0.0928,-0.4881,-0.1599,0.9487,0.2391,-0.3054,0.1432,9
-0.1665,0.4738,0.364,0.5002,-0.5649,-0.0099,0.9771,-0.0569,-0.1934,0.0975,-0.4928,-0.157,0.9629,0.2395,-0.326,0.1452,9
-0.1607,0.4501,0.37,0.4803,-0.5674,-0.0081,0.9896,-0.0631,-0.2077,0.1014,-0.4972,-0.1539,0.9776,0.2393,-0.3453,0.1467,9
-0.1607,0.4501,0.37,0.4803,-0.5674,-0.0081,0.9896,-0.0631,-0.2077,0.1014,-0.4972,-0.1539,0.9776,0.2393,-0.3453,0.1467,10
-0.1552,0.4214,0.3757,0.4566,-0.5674,-0.0081,0.9896,-0.0631,-0.2077,0.1014,-0.4972,-0.1539,0.9776,0.2393,-0.3453,0.1467,10
-0.1502,0.3885,0.3811,0.4295,-0.5732,-0.0038,1.0136,-0.0733,-0.2336,0.1074,-0.5052,-0.1467,1.0077,0.2366,-0.3794,0.1486,10
-0.1502,0.3885,0.3811,0.4295,-0.5732,-0.0038,1.0136,-0.0733,-0.2336,0.1074,-0.5052,-0.1467,1.0077,0.2366,-0.3794,0.1486,11
-0.1455,0.3523,0.3861,0.3993,-0.5764,-0.0013,1.0249,-0.0773,-0.2452,0.1095,-0.5087,-0.1427,1.0229,0.2338,-0.3937,0.1493,11
-0.1413,0.3135,0.3908,0.3662,-0.58,0.0016,1.0356,-0.0805,-0.2557,0.111,-0.5118,-0.1382,1.0378,0.2301,-0.4059,0.1501,11
-0.1413,0.3135,0.3908,0.3662,-0.58,0.0016,1.0356,-0.0805,-0.2557,0.111,-0.5118,-0.1382,1.0378,0.2301,-0.4059,0.1501,12
-0.1376,0.2731,0.395,0.3306,-0.5837,0.0048,1.0455,-0.0829,-0.2653,0.1122,-0.5145,-0.1333,1.0523,0.2252,-0.4158,0.151,12
-0.1343,0.2319,0.3988,0.2927,-0.5875,0.0084,1.0544,-0.0844,-0.2739,0.1129,-0.5168,-0.1281,1.0661,0.2192,-0.4233,0.1523,12
-0.1343,0.2319,0.3988,0.2927,-0.5875,0.0084,1.0544,-0.0844,-0.2739,0.1129,-0.5168,-0.1281,1.0661,0.2192,-0.4233,0.1523,12
-0.1316,0.1909,0.402,0.2527,-0.5914,0.0124,1.0623,-0.085,-0.2816,0.1134,-0.5186,-0.1224,1.079,0.2117,-0.4283,0.154,13
-0.1294,0.1508,0.4048,0.2109,-0.5952,0.0167,1.0688,-0.0847,-0.2883,0.1137,-0.5198,-0.1162,1.0908,0.2029,-0.4307,0.1564,13
-0.1294,0.1508,0.4048,0.2109,-0.5952,0.0167,1.0688,-0.0847,-0.2883,0.1137,-0.5198,-0.1162,1.0908,0.2029,-0.4307,0.1564,13
-0.1277,0.1125,0.4071,0.1672,-0.5989,0.0214,1.0739,-0.0835,-0.294,0.114,-0.5205,-0.1096,1.1012,0.1925,-0.4305,0.1596,14
-0.1264,0.0767,0.4088,0.1218,-0.6023,0.0265,1.0774,-0.0813,-0.2988,0.1143,-0.5206,-0.1025,1.11,0.1805,-0.4275,0.1637,14
-0.1264,0.0767,0.4088,0.1218,-0.6023,0.0265,1.0774,-0.0813,-0.2988,0.1143,-0.5206,-0.1025,1.11,0.1805,-0.4275,0.1637,14
-0.1256,0.0437,0.4099,0.0745,-0.6053,0.032,1.0791,-0.0781,-0.3025,0.1149,-0.5201,-0.095,1.1168,0.1667,-0.4219,0.1688,15
-0.1251,0.0143,0.4104,0.0252,-0.6078,0.0379,1.0789,-0.074,-0.3052,0.1158,-0.519,-0.087,1.1217,0.1511,-0.4136,0.1751,15
-0.1251,0.0143,0.4104,0.0252,-0.6078,0.0379,1.0789,-0.074,-0.3052,0.1158,-0.519,-0.087,1.1217,0.1511,-0.4136,0.1751,15
-0.125,-0.0114,0.4103,-0.0263,-0.6097,0.0442,1.0767,-0.0689,-0.3069,0.1171,-0.5174,-0.0786,1.1242,0.1337,-0.4027,0.1827,15
-0.1252,-0.0329,0.4096,-0.0803,-0.6111,0.0509,1.0724,-0.0629,-0.3075,0.1189,-0.5153,-0.0698,1.1244,0.1143,-0.3893,0.1916,16
-0.1252,-0.0329,0.4096,-0.0803,-0.6111,0.0509,1.0724,-0.0629,-0.3075,0.1189,-0.5153,-0.0698,1.1244,0.1143,-0.3893,0.1916,16
-0.1256,-0.05,0.4081,-0.137,-0.6117,0.058,1.0661,-0.0562,-0.307,0.1214,-0.5128,-0.0606,1.1221,0.093,-0.3736,0.2019,16
-0.1262,-0.0625,0.406,-0.1969,-0.6116,0.0656,1.0578,-0.049,-0.3054,0.1245,-0.5099,-0.0512,1.1172,0.0698,-0.3557,0.2136,17
-0.1262,-0.0625,0.406,-0.1969,-0.6116,0.0656,1.0578,-0.049,-0.3054,0.1245,-0.5099,-0.0512,1.1172,0.0698,-0.3557,0.2136,17
-0.127,-0.0704,0.4031,-0.26,-0.6107,0.0737,1.0476,-0.0414,-0.3027,0.1284,-0.5068,-0.0415,1.1098,0.045,-0.3357,0.2268,17
-0.1278,-0.0734,0.3993,-0.3266,-0.6091,0.0824,1.0356,-0.0338,-0.2988,0.1331,-0.5036,-0.0318,1.0999,0.0186,-0.314,0.2412,18
-0.1278,-0.0734,0.3993,-0.3266,-0.6091,0.0824,1.0356,-0.0338,-0.2988,0.1331,-0.5036,-0.0318,1.0999,0.0186,-0.314,0.2412,18
-0.1286,-0.0715,0.3947,-0.3969,-0.6068,0.0915,1.0219,-0.0265,-0.2938,0.1386,-0.5004,-0.022,1.0877,-0.0091,-0.2907,0.2569,18
-0.1295,-0.0646,0.3893,-0.4707,-0.6037,0.1012,1.007,-0.0197,-0.2876,0.1449,-0.4974,-0.0122,1.0734,-0.0379,-0.2661,0.2737,18
-0.1295,-0.0646,0.3893,-0.4707,-0.6037,0.1012,1.007,-0.0197,-0.2876,0.1449,-0.4974,-0.0122,1.0734,-0.0379,-0.2661,0.2737,19
-0.1302,-0.0527,0.3829,-0.5481,-0.5999,0.1113,0.9908,-0.0137,-0.2803,0.152,-0.4947,-0.0027,1.0571,-0.0673,-0.2403,0.2915,19
-0.1307,-0.0358,0.3755,-0.6287,-0.5955,0.1217,0.9738,-0.0089,-0.272,0.16,-0.4924,0.0067,1.0391,-0.097,-0.2137,0.3101,19
-0.1307,-0.0358,0.3755,-0.6287,-0.5955,0.1217,0.9738,-0.0089,-0.272,0.16,-0.4924,0.0067,1.0391,-0.097,-0.2137,0.3101,20
-0.131,-0.014,0.3671,-0.7121,-0.5904,0.1325,0.9563,-0.0053,-0.2626,0.1686,-0.4907,0.0156,1.0198,-0.1267,-0.1865,0.3291,20
-0.1311,0.0127,0.3577,-0.798,-0.5848,0.1434,0.9384,-0.0034,-0.2523,0.178,-0.4896,0.0242,0.9995,-0.1559,-0.1589,0.3484,20
-0.1311,0.0127,0.3577,-0.798,-0.5848,0.1434,0.9384,-0.0034,-0.2523,0.178,-0.4896,0.0242,0.9995,-0.1559,-0.1589,0.3484,21
-0.1308,0.0442,0.3472,-0.8856,-0.5787,0.1544,0.9205,-0.003,-0.2411,0.188,-0.4893,0.0322,0.9785,-0.1842,-0.1313,0.3678,21
-0.13,0.0801,0.3356,-0.974,-0.5722,0.1653,0.9029,-0.0045,-0.2291,0.1986,-0.4897,0.0396,0.9572,-0.2113,-0.1038,0.3868,21
-0.13,0.0801,0.3356,-0.974,-0.5722,0.1653,0.9029,-0.0045,-0.2291,0.1986,-0.4897,0.0396,0.9572,-0.2113,-0.1038,0.3868,22
-0.1289,0.1201,0.323,-1.0625,-0.5654,0.176,0.8858,-0.0076,-0.2165,0.2095,-0.491,0.0462,0.936,-0.2368,-0.0767,0.4053,22
-0.1272,0.164,0.3093,-1.15,-0.5583,0.1862,0.8695,-0.0126,-0.2033,0.2208,-0.4932,0.0522,0.9153,-0.2603,-0.0503,0.4229,22
-0.1272,0.164,0.3093,-1.15,-0.5583,0.1862,0.8695,-0.0126,-0.2033,0.2208,-0.4932,0.0522,0.9153,-0.2603,-0.0503,0.4229,22
-0.125,0.2112,0.2945,-1.2354,-0.5511,0.1959,0.8542,-0.0192,-0.1897,0.2323,-0.4961,0.0572,0.8953,-0.2817,-0.0247,0.4394,23
-0.1222,0.2611,0.2787,-1.3175,-0.5438,0.2049,0.8401,-0.0273,-0.1759,0.2438,-0.4998,0.0614,0.8763,-0.3005,-0.0002,0.4545,23
-0.1222,0.2611,0.2787,-1.3175,-0.5438,0.2049,0.8401,-0.0273,-0.1759,0.2438,-0.4998,0.0614,0.8763,-0.3005,-0.0002,0.4545,23
-0.1188,0.313,0.262,-1.3951,-0.5364,0.2129,0.8273,-0.0368,-0.162,0.2553,-0.5042,0.0647,0.8587,-0.3167,0.023,0.468,24
-0.1147,0.3663,0.2443,-1.4671,-0.529,0.2199,0.816,-0.0474,-0.1481,0.2665,-0.5091,0.0671,0.8426,-0.3301,0.0449,0.4797,24
-0.1147,0.3663,0.2443,-1.4671,-0.529,0.2199,0.816,-0.0474,-0.1481,0.2665,-0.5091,0.0671,0.8426,-0.3301,0.0449,0.4797,24
-0.11,0.4201,0.2258,-1.5323,-0.5217,0.2258,0.8063,-0.059,-0.1345,0.2774,-0.5144,0.0686,0.8281,-0.3406,0.0652,0.4895,25
-0.1047,0.4735,0.2066,-1.5897,-0.5145,0.2304,0.7981,-0.0713,-0.1212,0.2878,-0.52,0.0691,0.8156,-0.3482,0.0838,0.4971,25
-0.1047,0.4735,0.2066,-1.5897,-0.5145,0.2304,0.7981,-0.0713,-0.1212,0.2878,-0.52,0.0691,0.8156,-0.3482,0.0838,0.4971,25
-0.0986,0.5257,0.1868,-1.6382,-0.5074,0.2336,0.7917,-0.0839,-0.1084,0.2975,-0.5258,0.0687,0.8049,-0.3529,0.1006,0.5025,25
-0.092,0.5759,0.1665,-1.677,-0.5004,0.2353,0.7868,-0.0965,-0.0962,0.3064,-0.5314,0.0675,0.7961,-0.3548,0.1155,0.5056,26
-0.092,0.5759,0.1665,-1.677,-0.5004,0.2353,0.7868,-0.0965,-0.0962,0.3064,-0.5314,0.0675,0.7961,-0.3548,0.1155,0.5056,26
-0.0847,0.6234,0.1457,-1.7054,-0.4936,0.2356,0.7835,-0.1089,-0.0848,0.3144,-0.5369,0.0654,0.7893,-0.3541,0.1283,0.5064,26
-0.0768,0.6673,0.1247,-1.7229,-0.487,0.2344,0.7817,-0.1208,-0.0741,0.3213,-0.5419,0.0627,0.7843,-0.351,0.1392,0.5048,27
-0.0768,0.6673,0.1247,-1.7229,-0.487,0.2344,0.7817,-0.1208,-0.0741,0.3213,-0.5419,0.0627,0.7843,-0.351,0.1392,0.5048,27
-0.0684,0.707,0.1036,-1.7292,-0.4805,0.2317,0.7812,-0.1318,-0.0643,0.3271,-0.5463,0.0592,0.781,-0.3456,0.1479,0.501,27
-0.0595,0.7419,0.0825,-1.7241,-0.4741,0.2276,0.782,-0.1417,-0.0555,0.3316,-0.5499,0.0552,0.7793,-0.3383,0.1547,0.4949,28
-0.0595,0.7419,0.0825,-1.7241,-0.4741,0.2276,0.782,-0.1417,-0.0555,0.3316,-0.5499,0.0552,0.7793,-0.3383,0.1547,0.4949,28
-0.0501,0.7716,0.0615,-1.7077,-0.4679,0.2221,0.7837,-0.1503,-0.0476,0.3348,-0.5527,0.0506,0.779,-0.3294,0.1595,0.4868,28
-0.0404,0.7956,0.0408,-1.6803,-0.4618,0.2154,0.7864,-0.1573,-0.0407,0.3365,-0.5543,0.0456,0.7799,-0.319,0.1624,0.4766,28
-0.0404,0.7956,0.0408,-1.6803,-0.4618,0.2154,0.7864,-0.1573,-0.0407,0.3365,-0.5543,0.0456,0.7799,-0.319,0.1624,0.4766,29
-0.0304,0.8139,0.0205,-1.6424,-0.4558,0.2075,0.7896,-0.1626,-0.0348,0.3368,-0.5548,0.0403,0.7818,-0.3077,0.1634,0.4647,29
-0.0202,0.8261,0.0008,-1.5946,-0.4499,0.1986,0.7933,-0.1661,-0.0298,0.3357,-0.5541,0.0348,0.7845,-0.2956,0.1629,0.4511,29
-0.0202,0.8261,0.0008,-1.5946,-0.4499,0.1986,0.7933,-0.1661,-0.0298,0.3357,-0.5541,0.0348,0.7845,-0.2956,0.1629,0.4511,30
-0.0098,0.8325,-0.0183,-1.5377,-0.444,0.1889,0.7971,-0.1676,-0.0257,0.3332,-0.552,0.0291,0.7877,-0.2832,0.1607,0.4361,30
0.0007,0.8331,-0.0366,-1.4727,-0.4382,0.1786,0.801,-0.1672,-0.0225,0.3292,-0.5485,0.0234,0.7912,-0.2707,0.1573,0.4199,30
0.0007,0.8331,-0.0366,-1.4727,-0.4382,0.1786,0.801,-0.1672,-0.0225,0.3292,-0.5485,0.0234,0.7912,-0.2707,0.1573,0.4199,31
0.0112,0.8282,-0.0541,-1.4007,-0.4324,0.1678,0.8047,-0.165,-0.0199,0.3239,-0.5437,0.0177,0.7947,-0.2583,0.1526,0.4028,31
0.0216,0.8182,-0.0706,-1.3229,-0.4265,0.1567,0.808,-0.1608,-0.018,0.3174,-0.5375,0.0121,0.7982,-0.2464,0.147,0.3849,31
0.0216,0.8182,-0.0706,-1.3229,-0.4265,0.1567,0.808,-0.1608,-0.018,0.3174,-0.5375,0.0121,0.7982,-0.2464,0.147,0.3849,32
0.0319,0.8036,-0.0862,-1.2404,-0.4205,0.1455,0.8107,-0.155,-0.0166,0.3098,-0.53,0.0066,0.8013,-0.235,0.1406,0.3664,32
0.042,0.785,-0.1007,-1.1546,-0.4145,0.1344,0.8128,-0.1476,-0.0155,0.3013,-0.5214,0.0014,0.804,-0.2245,0.1337,0.3477,32
0.042,0.785,-0.1007,-1.1546,-0.4145,0.1344,0.8128,-0.1476,-0.0155,0.3013,-0.5214,0.0014,0.804,-0.2245,0.1337,0.3477,32
0.0519,0.7631,-0.1142,-1.0668,-0.4083,0.1236,0.8142,-0.139,-0.0144,0.292,-0.5116,-0.0034,0.8061,-0.2148,0.1266,0.3289,33
0.0616,0.7385,-0.1265,-0.9784,-0.4021,0.1132,0.8146,-0.1292,-0.0134,0.2822,-0.501,-0.008,0.8075,-0.2061,0.1195,0.3103,33
0.0616,0.7385,-0.1265,-0.9784,-0.4021,0.1132,0.8146,-0.1292,-0.0134,0.2822,-0.501,-0.008,0.8075,-0.2061,0.1195,0.3103,33
0.071,0.712,-0.1378,-0.8906,-0.3957,0.1035,0.8142,-0.1187,-0.0121,0.2719,-0.4895,-0.0121,0.8082,-0.1985,0.1126,0.2919,34
0.08,0.6843,-0.1481,-0.8046,-0.3893,0.0945,0.8129,-0.1077,-0.0103,0.2615,-0.4775,-0.0158,0.808,-0.1919,0.1062,0.2741,34
0.08,0.6843,-0.1481,-0.8046,-0.3893,0.0945,0.8129,-0.1077,-0.0103,0.2615,-0.4775,-0.0158,0.808,-0.1919,0.1062,0.2741,34
0.0887,0.6561,-0.1573,-0.7217,-0.3829,0.0864,0.8108,-0.0965,-0.008,0.251,-0.465,-0.019,0.8071,-0.1863,0.1005,0.2569,35
0.0971,0.6281,-0.1655,-0.6428,-0.3764,0.0793,0.8079,-0.0855,-0.0049,0.2407,-0.4524,-0.0218,0.8055,-0.1816,0.0958,0.2406,35
0.0971,0.6281,-0.1655,-0.6428,-0.3764,0.0793,0.8079,-0.0855,-0.0049,0.2407,-0.4524,-0.0218,0.8055,-0.1816,0.0958,0.2406,35
0.1051,0.6008,-0.1728,-0.569,-0.3701,0.0732,0.8043,-0.0749,-0.0009,0.2306,-0.4398,-0.0241,0.8031,-0.1777,0.0921,0.2252,35
0.1128,0.5747,-0.1792,-0.501,-0.364,0.0682,0.8002,-0.0651,0.0041,0.2211,-0.4274,-0.026,0.8002,-0.1746,0.0895,0.2108,36
0.1128,0.5747,-0.1792,-0.501,-0.364,0.0682,0.8002,-0.0651,0.0041,0.2211,-0.4274,-0.026,0.8002,-0.1746,0.0895,0.2108,36
0.1201,0.5503,-0.1849,-0.4395,-0.358,0.0643,0.7957,-0.0563,0.0102,0.212,-0.4153,-0.0274,0.7969,-0.1719,0.0883,0.1975,36
0.1272,0.5278,-0.1898,-0.3849,-0.3524,0.0616,0.7909,-0.0488,0.0175,0.2037,-0.4038,-0.0283,0.7931,-0.1696,0.0883,0.1855,37
0.1272,0.5278,-0.1898,-0.3849,-0.3524,0.0616,0.7909,-0.0488,0.0175,0.2037,-0.4038,-0.0283,0.7931,-0.1696,0.0883,0.1855,37
0.134,0.5074,-0.1941,-0.3378,-0.3472,0.06,0.7861,-0.0427,0.0259,0.196,-0.3931,-0.0287,0.7892,-0.1675,0.0897,0.1746,37
0.1405,0.4893,-0.1979,-0.2982,-0.3425,0.0594,0.7814,-0.0382,0.0354,0.1891,-0.3832,-0.0288,0.7853,-0.1654,0.0924,0.1649,38
0.1405,0.4893,-0.1979,-0.2982,-0.3425,0.0594,0.7814,-0.0382,0.0354,0.1891,-0.3832,-0.0288,0.7853,-0.1654,0.0924,0.1649,38
0.1468,0.4734,-0.2013,-0.2661,-0.3384,0.0598,0.777,-0.0354,0.0461,0.1829,-0.3744,-0.0284,0.7814,-0.1631,0.0964,0.1564,38
0.1529,0.4595,-0.2044,-0.2416,-0.3348,0.0612,0.7731,-0.0343,0.0578,0.1775,-0.3666,-0.0276,0.7777,-0.1605,0.1015,0.1491,38
0.1529,0.4595,-0.2044,-0.2416,-0.3348,0.0612,0.7731,-0.0343,0.0578,0.1775,-0.3666,-0.0276,0.7777,-0.1605,0.1015,0.1491,39
0.1588,0.4476,-0.2072,-0.2243,-0.3319,0.0635,0.7698,-0.035,0.0705,0.1729,-0.3601,-0.0264,0.7744,-0.1574,0.1078,0.143,39
0.1645,0.4374,-0.2098,-0.2138,-0.3297,0.0665,0.7673,-0.0372,0.0839,0.1689,-0.3548,-0.0248,0.7717,-0.1537,0.1149,0.1379,39
0.1645,0.4374,-0.2098,-0.2138,-0.3297,0.0665,0.7673,-0.0372,0.0839,0.1689,-0.3548,-0.0248,0.7717,-0.1537,0.1149,0.1379,40
0.1701,0.4286,-0.2124,-0.2096,-0.3283,0.0702,0.7657,-0.041,0.0979,0.1657,-0.3509,-0.023,0.7695,-0.1492,0.1228,0.1339,40
0.1755,0.4209,-0.2149,-0.2113,-0.3276,0.0744,0.765,-0.0461,0.1124,0.163,-0.3483,-0.0208,0.7681,-0.1439,0.1313,0.1308,40
0.1755,0.4209,-0.2149,-0.2113,-0.3276,0.0744,0.765,-0.0461,0.1124,0.163,-0.3483,-0.0208,0.7681,-0.1439,0.1313,0.1308,41
0.1808,0.4139,-0.2175,-0.218,-0.3276,0.0791,0.7655,-0.0524,0.1271,0.1609,-0.3471,-0.0184,0.7674,-0.1378,0.14,0.1286,41
0.186,0.4073,-0.2203,-0.229,-0.3283,0.0841,0.767,-0.0595,0.1417,0.1592,-0.3472,-0.0158,0.7676,-0.1307,0.1488,0.1272,41
0.186,0.4073,-0.2203,-0.229,-0.3283,0.0841,0.767,-0.0595,0.1417,0.1592,-0.3472,-0.0158,0.7676,-0.1307,0.1488,0.1272,42
0.1912,0.4008,-0.2232,-0.2435,-0.3283,0.0841,0.767,-0.0595,0.1417,0.1592,-0.3472,-0.0158,0.7676,-0.1307,0.1488,0.1272,42
0.1962,0.3942,-0.2263,-0.2606,-0.3318,0.0946,0.7734,-0.0752,0.1699,0.1567,-0.3512,-0.01,0.7707,-0.1141,0.1655,0.1262,42
0.1962,0.3942,-0.2263,-0.2606,-0.3318,0.0946,0.7734,-0.0752,0.1699,0.1567,-0.3512,-0.01,0.7707,-0.1141,0.1655,0.1262,42
0.201,0.3873,-0.2296,-0.2794,-0.3318,0.0946,0.7734,-0.0752,0.1699,0.1567,-0.3512,-0.01,0.7707,-0.1141,0.1655,0.1262,43
0.2058,0.3798,-0.2332,-0.2991,-0.3375,0.1051,0.784,-0.0911,0.1951,0.155,-0.3596,-0.0036,0.7773,-0.0947,0.1795,0.1268,43
0.2058,0.3798,-0.2332,-0.2991,-0.3375,0.1051,0.784,-0.0911,0.1951,0.155,-0.3596,-0.0036,0.7773,-0.0947,0.1795,0.1268,43
0.2105,0.3716,-0.237,-0.3187,-0.341,0.11,0.7906,-0.0983,0.2059,0.1542,-0.3651,-0.0003,0.7819,-0.0842,0.185,0.1275,44
0.2151,0.3628,-0.2411,-0.3374,-0.3447,0.1146,0.798,-0.1047,0.2153,0.1532,-0.3714,0.0031,0.7872,-0.0734,0.1892,0.1282,44
0.2151,0.3628,-0.2411,-0.3374,-0.3447,0.1146,0.798,-0.1047,0.2153,0.1532,-0.3714,0.0031,0.7872,-0.0734,0.1892,0.1282,44
0.2195,0.3533,-0.2453,-0.3544,-0.3487,0.1188,0.806,-0.1101,0.223,0.1521,-0.3782,0.0065,0.7932,-0.0625,0.1921,0.1288,45
0.2238,0.3432,-0.2498,-0.3691,-0.3529,0.1226,0.8145,-0.1142,0.2289,0.1506,-0.3854,0.0098,0.7997,-0.0517,0.1935,0.1292,45
0.2238,0.3432,-0.2498,-0.3691,-0.3529,0.1226,0.8145,-0.1142,0.2289,0.1506,-0.3854,0.0098,0.7997,-0.0517,0.1935,0.1292,45
0.228,0.3327,-0.2544,-0.3807,-0.357,0.1259,0.8232,-0.1168,0.2329,0.1488,-0.3929,0.0131,0.8066,-0.0412,0.1933,0.1294,45
0.232,0.3219,-0.2591,-0.3888,-0.3612,0.1287,0.832,-0.1179,0.2348,0.1465,-0.4004,0.0164,0.8138,-0.0312,0.1916,0.1291,46
0.232,0.3219,-0.2591,-0.3888,-0.3612,0.1287,0.832,-0.1179,0.2348,0.1465,-0.4004,0.0164,0.8138,-0.0312,0.1916,0.1291,46
0.2359,0.3109,-0.2639,-0.393,-0.3651,0.131,0.8408,-0.1172,0.2347,0.1436,-0.4078,0.0195,0.8211,-0.022,0.1884,0.1284,46
0.2397,0.3001,-0.2687,-0.3927,-0.3689,0.1328,0.8493,-0.1149,0.2325,0.1402,-0.415,0.0225,0.8284,-0.0136,0.1837,0.1271,47
0.2397,0.3001,-0.2687,-0.3927,-0.3689,0.1328,0.8493,-0.1149,0.2325,0.1402,-0.415,0.0225,0.8284,-0.0136,0.1837,0.1271,47
0.2433,0.2896,-0.2735,-0.3879,-0.3724,0.1341,0.8574,-0.111,0.2282,0.1361,-0.4219,0.0254,0.8355,-0.0062,0.1777,0.1252,47
0.2469,0.2796,-0.2782,-0.3782,-0.3755,0.1351,0.865,-0.1054,0.2221,0.1313,-0.4283,0.028,0.8423,0.0001,0.1703,0.1227,48
0.2469,0.2796,-0.2782,-0.3782,-0.3755,0.1351,0.865,-0.1054,0.2221,0.1313,-0.4283,0.028,0.8423,0.0001,0.1703,0.1227,48
0.2503,0.2704,-0.2827,-0.3637,-0.3783,0.1357,0.8719,-0.0984,0.2141,0.1257,-0.4341,0.0305,0.8487,0.0052,0.1619,0.1196,48
0.2536,0.262,-0.2869,-0.3442,-0.3807,0.136,0.878,-0.0901,0.2045,0.1194,-0.4394,0.0328,0.8545,0.009,0.1526,0.1158,48
0.2536,0.262,-0.2869,-0.3442,-0.3807,0.136,0.878,-0.0901,0.2045,0.1194,-0.4394,0.0328,0.8545,0.009,0.1526,0.1158,49
0.2568,0.2548,-0.2909,-0.3199,-0.3828,0.1362,0.8833,-0.0808,0.1935,0.1123,-0.444,0.0349,0.8597,0.0114,0.1426,0.1113,49
0.26,0.2488,-0.2946,-0.2908,-0.3844,0.1362,0.8877,-0.0707,0.1811,0.1044,-0.4479,0.0367,0.8642,0.0126,0.132,0.1063,49
0.26,0.2488,-0.2946,-0.2908,-0.3844,0.1362,0.8877,-0.0707,0.1811,0.1044,-0.4479,0.0367,0.8642,0.0126,0.132,0.1063,50
0.2631,0.2441,-0.2978,-0.2571,-0.3844,0.1362,0.8877,-0.0707,0.1811,0.1044,-0.4479,0.0367,0.8642,0.0126,0.132,0.1063,50
0.2661,0.2408,-0.3006,-0.2191,-0.3868,0.1361,0.8938,-0.0495,0.1536,0.0866,-0.4539,0.0396,0.8708,0.0113,0.1103,0.0943,50
0.2661,0.2408,-0.3006,-0.2191,-0.3868,0.1361,0.8938,-0.0495,0.1536,0.0866,-0.4539,0.0396,0.8708,0.0113,0.1103,0.0943,51
0.2691,0.239,-0.3029,-0.177,-0.3875,0.1361,0.8955,-0.0391,0.1389,0.0766,-0.456,0.0406,0.8729,0.0089,0.0995,0.0874,51
0.2722,0.2386,-0.3046,-0.1312,-0.3881,0.1363,0.8964,-0.0292,0.1238,0.0661,-0.4576,0.0414,0.8743,0.0055,0.0889,0.08,51
0.2722,0.2386,-0.3046,-0.1312,-0.3881,0.1363,0.8964,-0.0292,0.1238,0.0661,-0.4576,0.0414,0.8743,0.0055,0.0889,0.08,52
0.2752,0.2397,-0.3057,-0.0819,-0.3887,0.1367,0.8965,-0.0202,0.1086,0.0552,-0.4587,0.0419,0.875,0.0012,0.0787,0.072,52
0.2782,0.2421,-0.3062,-0.0297,-0.3892,0.1373,0.896,-0.0124,0.0934,0.0438,-0.4596,0.0421,0.875,-0.0037,0.069,0.0635,52
0.2782,0.2421,-0.3062,-0.0297,-0.3892,0.1373,0.896,-0.0124,0.0934,0.0438,-0.4596,0.0421,0.875,-0.0037,0.069,0.0635,52
0.2813,0.2459,-0.306,0.0249,-0.3898,0.1381,0.8949,-0.0059,0.0783,0.0321,-0.4601,0.0419,0.8746,-0.0092,0.0599,0.0544,53
0.2844,0.2509,-0.3051,0.0814,-0.3906,0.1391,0.8935,-0.001,0.0635,0.0202,-0.4606,0.0415,0.8739,-0.0151,0.0514,0.0449,53
0.2844,0.2509,-0.3051,0.0814,-0.3906,0.1391,0.8935,-0.001,0.0635,0.0202,-0.4606,0.0415,0.8739,-0.0151,0.0514,0.0449,53
0.2876,0.257,-0.3035,0.139,-0.3917,0.1403,0.8918,0.0021,0.049,0.0081,-0.461,0.0408,0.8728,-0.0212,0.0435,0.0348,54
0.2909,0.2641,-0.3012,0.1969,-0.3932,0.1418,0.8899,0.0034,0.035,-0.004,-0.4616,0.0398,0.8716,-0.0273,0.0362,0.0243,54
0.2909,0.2641,-0.3012,0.1969,-0.3932,0.1418,0.8899,0.0034,0.035,-0.004,-0.4616,0.0398,0.8716,-0.0273,0.0362,0.0243,54
0.2943,0.272,-0.2981,0.2543,-0.395,0.1434,0.8881,0.0028,0.0214,-0.016,-0.4623,0.0385,0.8703,-0.0333,0.0294,0.0133,55
0.2978,0.2805,-0.2944,0.3103,-0.3973,0.1452,0.8863,0.0003,0.0081,-0.028,-0.4633,0.0369,0.8691,-0.0389,0.023,0.0018,55
0.2978,0.2805,-0.2944,0.3103,-0.3973,0.1452,0.8863,0.0003,0.0081,-0.028,-0.4633,0.0369,0.8691,-0.0389,0.023,0.0018,55
0.3013,0.2893,-0.29,0.3638,-0.4002,0.1472,0.8849,-0.0041,-0.0048,-0.0397,-0.4647,0.0352,0.868,-0.0441,0.0169,-0.01,55
0.305,0.2983,-0.2851,0.4141,-0.4036,0.1492,0.8838,-0.0102,-0.0174,-0.0512,-0.4667,0.0331,0.8672,-0.0486,0.0111,-0.0222,56
0.305,0.2983,-0.2851,0.4141,-0.4036,0.1492,0.8838,-0.0102,-0.0174,-0.0512,-0.4667,0.0331,0.8672,-0.0486,0.0111,-0.0222,56
0.3088,0.3071,-0.2795,0.46,-0.4076,0.1514,0.8833,-0.0181,-0.0299,-0.0624,-0.4694,0.0309,0.8668,-0.0523,0.0052,-0.0348,56
0.3126,0.3155,-0.2734,0.5008,-0.4123,0.1536,0.8835,-0.0275,-0.0425,-0.0733,-0.4728,0.0284,0.867,-0.0549,-0.0009,-0.0477,57
0.3126,0.3155,-0.2734,0.5008,-0.4123,0.1536,0.8835,-0.0275,-0.0425,-0.0733,-0.4728,0.0284,0.867,-0.0549,-0.0009,-0.0477,57
0.3166,0.323,-0.2669,0.5357,-0.4177,0.1558,0.8844,-0.0386,-0.0551,-0.0838,-0.4771,0.0257,0.8677,-0.0562,-0.0074,-0.0608,57
0.3206,0.3293,-0.2601,0.5641,-0.4238,0.1581,0.8863,-0.051,-0.068,-0.0939,-0.4823,0.0226,0.8693,-0.056,-0.0146,-0.0742,58
0.3206,0.3293,-0.2601,0.5641,-0.4238,0.1581,0.8863,-0.051,-0.068,-0.0939,-0.4823,0.0226,0.8693,-0.056,-0.0146,-0.0742,58
0.3247,0.3342,-0.2529,0.5856,-0.4305,0.1602,0.8893,-0.0648,-0.0813,-0.1036,-0.4886,0.0193,0.8718,-0.0541,-0.0228,-0.0877,58
0.3288,0.3373,-0.2456,0.5996,-0.4379,0.1622,0.8935,-0.0799,-0.0949,-0.1129,-0.4958,0.0155,0.8754,-0.0503,-0.0322,-0.1015,58
0.3288,0.3373,-0.2456,0.5996,-0.4379,0.1622,0.8935,-0.0799,-0.0949,-0.1129,-0.4958,0.0155,0.8754,-0.0503,-0.0322,-0.1015,59
0.3329,0.3384,-0.2382,0.6062,-0.4458,0.1639,0.8989,-0.096,-0.1089,-0.1218,-0.5041,0.0114,0.8801,-0.0444,-0.0432,-0.1153,59
0.337,0.3372,-0.2308,0.6054,-0.4543,0.1651,0.9057,-0.1129,-0.1233,-0.1303,-0.5133,0.0069,0.8862,-0.0363,-0.0559,-0.1294,59
0.337,0.3372,-0.2308,0.6054,-0.4543,0.1651,0.9057,-0.1129,-0.1233,-0.1303,-0.5133,0.0069,0.8862,-0.0363,-0.0559,-0.1294,60
0.3411,0.3335,-0.2235,0.5972,-0.4631,0.1658,0.9138,-0.1305,-0.138,-0.1384,-0.5233,0.002,0.8935,-0.0258,-0.0705,-0.1436,60
0.345,0.3273,-0.2163,0.5821,-0.4721,0.1658,0.9233,-0.1483,-0.1528,-0.1462,-0.5339,-0.0032,0.9023,-0.0131,-0.0873,-0.158,60
0.345,0.3273,-0.2163,0.5821,-0.4721,0.1658,0.9233,-0.1483,-0.1528,-0.1462,-0.5339,-0.0032,0.9023,-0.0131,-0.0873,-0.158,61
0.3489,0.3183,-0.2094,0.5607,-0.4813,0.1649,0.9341,-0.166,-0.1674,-0.1537,-0.545,-0.0088,0.9123,0.0017,-0.1062,-0.1727,61
0.3526,0.3065,-0.2028,0.5335,-0.4903,0.163,0.9461,-0.1833,-0.1818,-0.1609,-0.5564,-0.0146,0.9237,0.0185,-0.1274,-0.1875,61
0.3526,0.3065,-0.2028,0.5335,-0.4903,0.163,0.9461,-0.1833,-0.1818,-0.1609,-0.5564,-0.0146,0.9237,0.0185,-0.1274,-0.1875,62
0.3562,0.2916,-0.1966,0.5015,-0.4993,0.16,0.9592,-0.1997,-0.1956,-0.1679,-0.5678,-0.0207,0.9362,0.037,-0.1506,-0.2026,62
0.3595,0.2736,-0.1909,0.4655,-0.5079,0.1559,0.9731,-0.2147,-0.2086,-0.1747,-0.5791,-0.0268,0.9496,0.0569,-0.1758,-0.2178,62
0.3595,0.2736,-0.1909,0.4655,-0.5079,0.1559,0.9731,-0.2147,-0.2086,-0.1747,-0.5791,-0.0268,0.9496,0.0569,-0.1758,-0.2178,62
0.3626,0.2524,-0.1856,0.4264,-0.516,0.1505,0.9876,-0.2279,-0.2205,-0.1815,-0.5901,-0.0331,0.9638,0.0776,-0.2025,-0.2332,63
0.3654,0.2278,-0.1808,0.3854,-0.5236,0.1439,1.0024,-0.2389,-0.2312,-0.1883,-0.6005,-0.0393,0.9784,0.0987,-0.2304,-0.2487,63
0.3654,0.2278,-0.1808,0.3854,-0.5236,0.1439,1.0024,-0.2389,-0.2312,-0.1883,-0.6005,-0.0393,0.9784,0.0987,-0.2304,-0.2487,63
0.3679,0.1997,-0.1765,0.3434,-0.5306,0.136,1.0172,-0.2473,-0.2405,-0.1952,-0.6103,-0.0455,0.9932,0.1197,-0.259,-0.2642,64
0.37,0.1677,-0.1728,0.3014,-0.5369,0.1269,1.0316,-0.2527,-0.2482,-0.2024,-0.6191,-0.0516,1.0078,0.14,-0.2876,-0.2797,64
0.37,0.1677,-0.1728,0.3014,-0.5369,0.1269,1.0316,-0.2527,-0.2482,-0.2024,-0.6191,-0.0516,1.0078,0.14,-0.2876,-0.2797,64
0.3716,0.1319,-0.1695,0.2603,-0.5424,0.1168,1.0452,-0.2547,-0.2544,-0.2101,-0.627,-0.0575,1.0218,0.1591,-0.3156,-0.295,65
0.3728,0.0918,-0.1668,0.221,-0.5473,0.1056,1.0577,-0.2533,-0.259,-0.2184,-0.6338,-0.0633,1.0348,0.1765,-0.3424,-0.3101,65
0.3728,0.0918,-0.1668,0.221,-0.5473,0.1056,1.0577,-0.2533,-0.259,-0.2184,-0.6338,-0.0633,1.0348,0.1765,-0.3424,-0.3101,65
0.3735,0.0475,-0.1644,0.1843,-0.5514,0.0937,1.0688,-0.2484,-0.2621,-0.2274,-0.6395,-0.069,1.0466,0.1917,-0.3672,-0.3248,65
0.3736,-0.0014,-0.1625,0.1509,-0.5548,0.0812,1.0782,-0.2399,-0.2639,-0.2374,-0.644,-0.0744,1.0567,0.2044,-0.3896,-0.339,66
0.3736,-0.0014,-0.1625,0.1509,-0.5548,0.0812,1.0782,-0.2399,-0.2639,-0.2374,-0.644,-0.0744,1.0567,0.2044,-0.3896,-0.339,66
0.373,-0.055,-0.161,0.1214,-0.5575,0.0682,1.0855,-0.2279,-0.2642,-0.2484,-0.6472,-0.0798,1.0649,0.2143,-0.4089,-0.3528,66
0.3718,-0.1133,-0.1598,0.0963,-0.5597,0.0552,1.0906,-0.2127,-0.2634,-0.2605,-0.6493,-0.0851,1.071,0.2212,-0.4249,-0.3659,67
0.3718,-0.1133,-0.1598,0.0963,-0.5597,0.0552,1.0906,-0.2127,-0.2634,-0.2605,-0.6493,-0.0851,1.071,0.2212,-0.4249,-0.3659,67
0.3698,-0.1764,-0.1588,0.0761,-0.5614,0.0422,1.0934,-0.1947,-0.2614,-0.2737,-0.6502,-0.0903,1.0747,0.225,-0.4371,-0.3784,67
0.367,-0.2442,-0.1581,0.0611,-0.5627,0.0296,1.0937,-0.174,-0.2582,-0.2882,-0.65,-0.0956,1.076,0.2258,-0.4454,-0.3902,68
0.367,-0.2442,-0.1581,0.0611,-0.5627,0.0296,1.0937,-0.174,-0.2582,-0.2882,-0.65,-0.0956,1.076,0.2258,-0.4454,-0.3902,68
0.3634,-0.3164,-0.1575,0.0516,-0.5635,0.0175,1.0915,-0.1513,-0.2539,-0.3038,-0.6486,-0.1008,1.0747,0.2237,-0.4497,-0.4013,68
0.3588,-0.3929,-0.1569,0.0477,-0.564,0.0061,1.0869,-0.1269,-0.2485,-0.3205,-0.6462,-0.1061,1.071,0.2189,-0.4498,-0.4117,68
0.3588,-0.3929,-0.1569,0.0477,-0.564,0.0061,1.0869,-0.1269,-0.2485,-0.3205,-0.6462,-0.1061,1.071,0.2189,-0.4498,-0.4117,69
0.3533,-0.4732,-0.1563,0.0495,-0.5643,-0.0044,1.08,-0.1013,-0.2418,-0.3382,-0.6429,-0.1114,1.0648,0.2116,-0.4459,-0.4214,69
0.3468,-0.5569,-0.1557,0.057,-0.5644,-0.0138,1.071,-0.075,-0.2339,-0.3566,-0.6386,-0.1167,1.0563,0.2024,-0.4382,-0.4306,69
0.3468,-0.5569,-0.1557,0.057,-0.5644,-0.0138,1.071,-0.075,-0.2339,-0.3566,-0.6386,-0.1167,1.0563,0.2024,-0.4382,-0.4306,70
0.3392,-0.6435,-0.1549,0.0701,-0.5643,-0.022,1.0599,-0.0484,-0.2247,-0.3757,-0.6335,-0.122,1.0457,0.1914,-0.4267,-0.4393,70
0.3305,-0.7321,-0.1539,0.0886,-0.5641,-0.029,1.0471,-0.0219,-0.2141,-0.3952,-0.6276,-0.1272,1.0332,0.1793,-0.4119,-0.4476,70
0.3305,-0.7321,-0.1539,0.0886,-0.5641,-0.029,1.0471,-0.0219,-0.2141,-0.3952,-0.6276,-0.1272,1.0332,0.1793,-0.4119,-0.4476,71
0.3208,-0.822,-0.1526,0.1124,-0.5638,-0.0346,1.0328,0.004,-0.2021,-0.4149,-0.6211,-0.1323,1.0191,0.1664,-0.394,-0.4556,71
0.31,-0.9123,-0.151,0.1409,-0.5636,-0.0388,1.0172,0.0292,-0.1887,-0.4344,-0.614,-0.1373,1.0037,0.1532,-0.3735,-0.4633,71
0.31,-0.9123,-0.151,0.1409,-0.5636,-0.0388,1.0172,0.0292,-0.1887,-0.4344,-0.614,-0.1373,1.0037,0.1532,-0.3735,-0.4633,72
0.298,-1.002,-0.149,0.1739,-0.5634,-0.0417,1.0007,0.0532,-0.174,-0.4536,-0.6063,-0.1421,0.9873,0.1401,-0.3507,-0.4709,72
0.285,-1.0899,-0.1465,0.2108,-0.5633,-0.0433,0.9836,0.0758,-0.1581,-0.4722,-0.5983,-0.1466,0.9702,0.1276,-0.3262,-0.4784,72
0.285,-1.0899,-0.1465,0.2108,-0.5633,-0.0433,0.9836,0.0758,-0.1581,-0.4722,-0.5983,-0.1466,0.9702,0.1276,-0.3262,-0.4784,72
0.2709,-1.175,-0.1435,0.251,-0.5633,-0.0435,0.9662,0.0968,-0.141,-0.4899,-0.5899,-0.1508,0.9528,0.116,-0.3004,-0.4858,73
0.2558,-1.2561,-0.1401,0.2939,-0.5635,-0.0426,0.9487,0.116,-0.123,-0.5063,-0.5812,-0.1546,0.9353,0.1057,-0.2738,-0.4933,73
0.2558,-1.2561,-0.1401,0.2939,-0.5635,-0.0426,0.9487,0.116,-0.123,-0.5063,-0.5812,-0.1546,0.9353,0.1057,-0.2738,-0.4933,73
0.2398,-1.332,-0.1361,0.3389,-0.5637,-0.0405,0.9315,0.1334,-0.1043,-0.5213,-0.5723,-0.158,0.9181,0.097,-0.247,-0.5008,74
0.2229,-1.4016,-0.1315,0.3851,-0.5641,-0.0374,0.9148,0.1488,-0.085,-0.5346,-0.5633,-0.1609,0.9014,0.0901,-0.2204,-0.5083,74
0.2229,-1.4016,-0.1315,0.3851,-0.5641,-0.0374,0.9148,0.1488,-0.085,-0.5346,-0.5633,-0.1609,0.9014,0.0901,-0.2204,-0.5083,74
0.2052,-1.4637,-0.1263,0.4319,-0.5646,-0.0335,0.8988,0.1623,-0.0654,-0.546,-0.5541,-0.1633,0.8855,0.0852,-0.1944,-0.5157,75
0.1868,-1.5175,-0.1206,0.4785,-0.5652,-0.0288,0.8838,0.1739,-0.0457,-0.5552,-0.5449,-0.165,0.8706,0.0825,-0.1696,-0.5231,75
0.1868,-1.5175,-0.1206,0.4785,-0.5652,-0.0288,0.8838,0.1739,-0.0457,-0.5552,-0.5449,-0.165,0.8706,0.0825,-0.1696,-0.5231,75
0.1678,-1.5621,-0.1143,0.5241,-0.5657,-0.0235,0.8698,0.1835,-0.0263,-0.5622,-0.5356,-0.1661,0.8569,0.0819,-0.1463,-0.5302,75
0.1483,-1.5967,-0.1075,0.5681,-0.5661,-0.0178,0.857,0.1914,-0.0074,-0.5668,-0.5263,-0.1665,0.8446,0.0836,-0.1247,-0.5371,76
0.1483,-1.5967,-0.1075,0.5681,-0.5661,-0.0178,0.857,0.1914,-0.0074,-0.5668,-0.5263,-0.1665,0.8446,0.0836,-0.1247,-0.5371,76
0.1285,-1.6209,-0.1002,0.6097,-0.5663,-0.0118,0.8456,0.1976,0.0108,-0.5689,-0.517,-0.1662,0.8337,0.0874,-0.1053,-0.5437,76
0.1084,-1.6342,-0.0923,0.6484,-0.5663,-0.0056,0.8354,0.2023,0.028,-0.5686,-0.5077,-0.1652,0.8242,0.0932,-0.0881,-0.5499,77
0.1084,-1.6342,-0.0923,0.6484,-0.5663,-0.0056,0.8354,0.2023,0.028,-0.5686,-0.5077,-0.1652,0.8242,0.0932,-0.0881,-0.5499,77
0.0883,-1.6365,-0.0841,0.6837,-0.5658,0.0006,0.8265,0.2057,0.0439,-0.5658,-0.4984,-0.1634,0.8163,0.1008,-0.0733,-0.5555,77
0.0682,-1.6279,-0.0754,0.715,-0.565,0.0066,0.819,0.208,0.0583,-0.5606,-0.4891,-0.1609,0.8098,0.1101,-0.0609,-0.5604,78
0.0682,-1.6279,-0.0754,0.715,-0.565,0.0066,0.819,0.208,0.0583,-0.5606,-0.4891,-0.1609,0.8098,0.1101,-0.0609,-0.5604,78
0.0483,-1.6083,-0.0664,0.7421,-0.5635,0.0124,0.8126,0.2094,0.0711,-0.5532,-0.4796,-0.1578,0.8048,0.1208,-0.051,-0.5647,78
0.0286,-1.5782,-0.0571,0.7647,-0.5614,0.0178,0.8073,0.2101,0.0821,-0.5436,-0.4701,-0.1539,0.8011,0.1325,-0.0434,-0.5682,78
0.0286,-1.5782,-0.0571,0.7647,-0.5614,0.0178,0.8073,0.2101,0.0821,-0.5436,-0.4701,-0.1539,0.8011,0.1325,-0.0434,-0.5682,79
0.0094,-1.5382,-0.0475,0.7828,-0.5585,0.0228,0.8031,0.2104,0.0912,-0.5321,-0.4605,-0.1495,0.7985,0.1449,-0.0379,-0.5708,79
-0.0092,-1.4887,-0.0378,0.7962,-0.5549,0.0272,0.7997,0.2103,0.0982,-0.5187,-0.4507,-0.1446,0.797,0.1577,-0.0343,-0.5725,79
-0.0092,-1.4887,-0.0378,0.7962,-0.5549,0.0272,0.7997,0.2103,0.0982,-0.5187,-0.4507,-0.1446,0.797,0.1577,-0.0343,-0.5725,80
-0.0272,-1.4307,-0.028,0.805,-0.5505,0.031,0.797,0.2102,0.1032,-0.5039,-0.4407,-0.1392,0.7963,0.1706,-0.0323,-0.5732,80
-0.0444,-1.3652,-0.0181,0.8094,-0.5452,0.0341,0.7949,0.2102,0.1062,-0.4877,-0.4306,-0.1334,0.7963,0.1832,-0.0316,-0.5729,80
-0.0444,-1.3652,-0.0181,0.8094,-0.5452,0.0341,0.7949,0.2102,0.1062,-0.4877,-0.4306,-0.1334,0.7963,0.1832,-0.0316,-0.5729,81
-0.0608,-1.293,-0.0081,0.8097,-0.5391,0.0366,0.7932,0.2104,0.1073,-0.4704,-0.4203,-0.1274,0.7968,0.1951,-0.0317,-0.5714,81
-0.0763,-1.2155,0.0018,0.8062,-0.5321,0.0384,0.7919,0.2109,0.1066,-0.4524,-0.4097,-0.1213,0.7976,0.2062,-0.0325,-0.5689,81
-0.0763,-1.2155,0.0018,0.8062,-0.5321,0.0384,0.7919,0.2109,0.1066,-0.4524,-0.4097,-0.1213,0.7976,0.2062,-0.0325,-0.5689,82
-0.0908,-1.1337,0.0116,0.7992,-0.5244,0.0395,0.7906,0.2118,0.1042,-0.4337,-0.3991,-0.115,0.7985,0.2162,-0.0334,-0.5653,82
-0.1044,-1.0489,0.0214,0.7893,-0.5159,0.0399,0.7894,0.2132,0.1003,-0.4146,-0.3883,-0.1088,0.7993,0.225,-0.0341,-0.5605,82
-0.1044,-1.0489,0.0214,0.7893,-0.5159,0.0399,0.7894,0.2132,0.1003,-0.4146,-0.3883,-0.1088,0.7993,0.225,-0.0341,-0.5605,82
-0.1168,-0.9624,0.031,0.7768,-0.5067,0.0397,0.7881,0.215,0.0953,-0.3955,-0.3774,-0.1028,0.7999,0.2324,-0.0343,-0.5545,83
-0.1282,-0.8753,0.0405,0.7624,-0.4969,0.0389,0.7866,0.2173,0.0892,-0.3764,-0.3666,-0.0969,0.8002,0.2383,-0.0337,-0.5474,83
-0.1282,-0.8753,0.0405,0.7624,-0.4969,0.0389,0.7866,0.2173,0.0892,-0.3764,-0.3666,-0.0969,0.8002,0.2383,-0.0337,-0.5474,83
-0.1386,-0.789,0.0497,0.7465,-0.4867,0.0376,0.7848,0.22,0.0825,-0.3575,-0.3558,-0.0914,0.8,0.2428,-0.0321,-0.5392,84
-0.1479,-0.7045,0.0588,0.7295,-0.4761,0.0358,0.7827,0.223,0.0754,-0.3392,-0.3452,-0.0863,0.7992,0.2458,-0.0292,-0.53,84
-0.1479,-0.7045,0.0588,0.7295,-0.4761,0.0358,0.7827,0.223,0.0754,-0.3392,-0.3452,-0.0863,0.7992,0.2458,-0.0292,-0.53,84
-0.1562,-0.6228,0.0677,0.712,-0.4653,0.0335,0.7802,0.2262,0.0682,-0.3215,-0.3349,-0.0817,0.7979,0.2476,-0.025,-0.5197,85
-0.1636,-0.545,0.0764,0.6944,-0.4545,0.031,0.7774,0.2296,0.0611,-0.3045,-0.3249,-0.0776,0.7959,0.248,-0.0191,-0.5085,85
-0.1636,-0.545,0.0764,0.6944,-0.4545,0.031,0.7774,0.2296,0.0611,-0.3045,-0.3249,-0.0776,0.7959,0.248,-0.0191,-0.5085,85
-0.17,-0.4719,0.0849,0.677,-0.4437,0.0281,0.7741,0.2328,0.0546,-0.2884,-0.3154,-0.0742,0.7933,0.2474,-0.0117,-0.4963,85
-0.1756,-0.4042,0.0931,0.6601,-0.4331,0.025,0.7706,0.2358,0.0487,-0.2732,-0.3064,-0.0713,0.7902,0.2459,-0.0027,-0.4833,86
-0.1756,-0.4042,0.0931,0.6601,-0.4331,0.025,0.7706,0.2358,0.0487,-0.2732,-0.3064,-0.0713,0.7902,0.2459,-0.0027,-0.4833,86
-0.1804,-0.3425,0.1012,0.6439,-0.4229,0.0217,0.7667,0.2384,0.0438,-0.2591,-0.2981,-0.0691,0.7865,0.2436,0.0078,-0.4695,86
-0.1844,-0.2871,0.1091,0.6286,-0.4133,0.0184,0.7627,0.2404,0.04,-0.246,-0.2906,-0.0677,0.7824,0.2408,0.0198,-0.4549,87
-0.1844,-0.2871,0.1091,0.6286,-0.4133,0.0184,0.7627,0.2404,0.04,-0.246,-0.2906,-0.0677,0.7824,0.2408,0.0198,-0.4549,87
-0.1879,-0.2385,0.1169,0.6144,-0.4043,0.015,0.7586,0.2417,0.0376,-0.234,-0.2839,-0.0669,0.778,0.2377,0.0332,-0.4398,87
-0.1907,-0.1967,0.1245,0.6014,-0.3961,0.0115,0.7545,0.242,0.0365,-0.223,-0.2781,-0.0668,0.7733,0.2344,0.0477,-0.424,88
-0.1907,-0.1967,0.1245,0.6014,-0.3961,0.0115,0.7545,0.242,0.0365,-0.223,-0.2781,-0.0668,0.7733,0.2344,0.0477,-0.424,88
-0.1931,-0.1618,0.1319,0.5895,-0.3887,0.0081,0.7505,0.2413,0.037,-0.213,-0.2733,-0.0674,0.7685,0.2311,0.0631,-0.4079,88
-0.1952,-0.1335,0.1392,0.5787,-0.3824,0.0048,0.7467,0.2394,0.039,-0.204,-0.2694,-0.0687,0.7638,0.2281,0.0791,-0.3913,88
-0.1952,-0.1335,0.1392,0.5787,-0.3824,0.0048,0.7467,0.2394,0.039,-0.204,-0.2694,-0.0687,0.7638,0.2281,0.0791,-0.3913,89
-0.1969,-0.1118,0.1464,0.569,-0.377,0.0015,0.7433,0.2363,0.0426,-0.1958,-0.2667,-0.0706,0.7592,0.2254,0.0956,-0.3744,89
-0.1983,-0.096,0.1535,0.5603,-0.3728,-0.0017,0.7403,0.2319,0.0477,-0.1884,-0.265,-0.073,0.7549,0.2231,0.1121,-0.3574,89
-0.1983,-0.096,0.1535,0.5603,-0.3728,-0.0017,0.7403,0.2319,0.0477,-0.1884,-0.265,-0.073,0.7549,0.2231,0.1121,-0.3574,90
-0.1996,-0.0859,0.1604,0.5525,-0.3697,-0.0048,0.7379,0.2262,0.0541,-0.1816,-0.2643,-0.0759,0.7511,0.2214,0.1284,-0.3401,90
-0.2008,-0.0807,0.1673,0.5455,-0.3677,-0.0078,0.736,0.2193,0.0619,-0.1754,-0.2647,-0.0792,0.7478,0.2203,0.1441,-0.3229,90
-0.2008,-0.0807,0.1673,0.5455,-0.3677,-0.0078,0.736,0.2193,0.0619,-0.1754,-0.2647,-0.0792,0.7478,0.2203,0.1441,-0.3229,91
-0.2019,-0.0798,0.1741,0.5391,-0.3668,-0.0107,0.7348,0.2113,0.0709,-0.1696,-0.266,-0.0828,0.7451,0.2198,0.1591,-0.3056,91
-0.203,-0.0825,0.1808,0.5333,-0.3669,-0.0136,0.7343,0.2024,0.0809,-0.1642,-0.2683,-0.0867,0.7432,0.2198,0.173,-0.2883,91
-0.203,-0.0825,0.1808,0.5333,-0.3669,-0.0136,0.7343,0.2024,0.0809,-0.1642,-0.2683,-0.0867,0.7432,0.2198,0.173,-0.2883,92
-0.2042,-0.0881,0.1875,0.5279,-0.3681,-0.0163,0.7344,0.1927,0.0916,-0.159,-0.2714,-0.0908,0.7422,0.2204,0.1856,-0.2712,92
-0.2054,-0.0958,0.1941,0.5228,-0.3703,-0.019,0.7353,0.1825,0.103,-0.1538,-0.2752,-0.095,0.742,0.2213,0.1968,-0.2542,92
-0.2054,-0.0958,0.1941,0.5228,-0.3703,-0.019,0.7353,0.1825,0.103,-0.1538,-0.2752,-0.095,0.742,0.2213,0.1968,-0.2542,92
-0.2067,-0.1049,0.2006,0.5179,-0.3733,-0.0217,0.7369,0.172,0.1148,-0.1487,-0.2797,-0.0992,0.7427,0.2225,0.2062,-0.2373,93
-0.2081,-0.1147,0.207,0.5131,-0.3772,-0.0243,0.739,0.1615,0.1267,-0.1434,-0.2848,-0.1034,0.7443,0.2239,0.2138,-0.2206,93
-0.2081,-0.1147,0.207,0.5131,-0.3772,-0.0243,0.739,0.1615,0.1267,-0.1434,-0.2848,-0.1034,0.7443,0.2239,0.2138,-0.2206,93
-0.2096,-0.1245,0.2134,0.5085,-0.3772,-0.0243,0.739,0.1615,0.1267,-0.1434,-0.2848,-0.1034,0.7443,0.2239,0.2138,-0.2206,94
-0.2112,-0.1339,0.2197,0.5039,-0.387,-0.0294,0.7451,0.1417,0.1502,-0.1323,-0.296,-0.1115,0.7502,0.2264,0.2232,-0.1878,94
-0.2112,-0.1339,0.2197,0.5039,-0.387,-0.0294,0.7451,0.1417,0.1502,-0.1323,-0.296,-0.1115,0.7502,0.2264,0.2232,-0.1878,94
-0.2129,-0.142,0.2259,0.4993,-0.3927,-0.0319,0.7489,0.1327,0.1612,-0.1263,-0.3019,-0.1154,0.7544,0.2273,0.2248,-0.1716,95
-0.2147,-0.1486,0.2321,0.4947,-0.3989,-0.0342,0.753,0.1246,0.1716,-0.12,-0.3079,-0.1191,0.7593,0.2277,0.2245,-0.1556,95
-0.2147,-0.1486,0.2321,0.4947,-0.3989,-0.0342,0.753,0.1246,0.1716,-0.12,-0.3079,-0.1191,0.7593,0.2277,0.2245,-0.1556,95
-0.2165,-0.1531,0.2382,0.49,-0.4055,-0.0365,0.7575,0.1174,0.181,-0.1132,-0.3139,-0.1225,0.7649,0.2275,0.2221,-0.1397,95
-0.2183,-0.1551,0.2442,0.4853,-0.4124,-0.0386,0.7622,0.1112,0.1892,-0.1059,-0.3198,-0.1258,0.771,0.2266,0.2177,-0.1239,96
-0.2183,-0.1551,0.2442,0.4853,-0.4124,-0.0386,0.7622,0.1112,0.1892,-0.1059,-0.3198,-0.1258,0.771,0.2266,0.2177,-0.1239,96
-0.2201,-0.1544,0.2501,0.4805,-0.4124,-0.0386,0.7622,0.1112,0.1892,-0.1059,-0.3198,-0.1258,0.771,0.2266,0.2177,-0.1239,96
-0.2219,-0.1505,0.256,0.4756,-0.4268,-0.0422,0.7724,0.1014,0.2017,-0.0897,-0.3308,-0.1316,0.7846,0.2227,0.2034,-0.0923,97
-0.2219,-0.1505,0.256,0.4756,-0.4268,-0.0422,0.7724,0.1014,0.2017,-0.0897,-0.3308,-0.1316,0.7846,0.2227,0.2034,-0.0923,97
-0.2235,-0.1432,0.2618,0.4706,-0.4268,-0.0422,0.7724,0.1014,0.2017,-0.0897,-0.3308,-0.1316,0.7846,0.2227,0.2034,-0.0923,97
-0.2235,-0.1432,0.2618,0.4706,-0.4414,-0.0448,0.7832,0.0941,0.2081,-0.071,-0.3406,-0.1364,0.7994,0.2156,0.1825,-0.0602,98
-0.2251,-0.1325,0.2675,0.4655,-0.4414,-0.0448,0.7832,0.0941,0.2081,-0.071,-0.3406,-0.1364,0.7994,0.2156,0.1825,-0.0602,98
-0.2265,-0.1181,0.2731,0.4602,-0.4487,-0.0457,0.7888,0.091,0.2088,-0.0606,-0.3449,-0.1385,0.8071,0.2111,0.1699,-0.0439,98
-0.2277,-0.0999,0.2787,0.4549,-0.4558,-0.0463,0.7946,0.0879,0.2079,-0.0496,-0.3489,-0.1402,0.8148,0.2059,0.1561,-0.0272,98
-0.2277,-0.0999,0.2787,0.4549,-0.4558,-0.0463,0.7946,0.0879,0.2079,-0.0496,-0.3489,-0.1402,0.8148,0.2059,0.1561,-0.0272,99
-0.2286,-0.0779,0.2842,0.4494,-0.4626,-0.0465,0.8005,0.0845,0.2052,-0.0379,-0.3525,-0.1417,0.8226,0.2003,0.1411,-0.0103,99
-0.2292,-0.0523,0.2896,0.4439,-0.4692,-0.0464,0.8066,0.0808,0.2009,-0.0254,-0.3558,-0.1428,0.8303,0.1944,0.1251,0.007,99
-0.2292,-0.0523,0.2896,0.4439,-0.4692,-0.0464,0.8066,0.0808,0.2009,-0.0254,-0.3558,-0.1428,0.8303,0.1944,0.1251,0.007,100
-0.2294,-0.0231,0.2949,0.4384,-0.4756,-0.046,0.8129,0.0763,0.195,-0.0123,-0.3588,-0.1437,0.838,0.1883,0.1082,0.0245,0
-0.2293,0.0092,0.3002,0.433,-0.4816,-0.0452,0.8194,0.0711,0.1874,0.0014,-0.3616,-0.1443,0.8457,0.1823,0.0905,0.0424,0
-0.2293,0.0092,0.3002,0.433,-0.4816,-0.0452,0.8194,0.0711,0.1874,0.0014,-0.3616,-0.1443,0.8457,0.1823,0.0905,0.0424,1
-0.2287,0.0445,0.3054,0.4276,-0.4872,-0.044,0.8261,0.0648,0.1784,0.0158,-0.3642,-0.1445,0.8533,0.1764,0.0721,0.0605,1
-0.2276,0.082,0.3106,0.4223,-0.4925,-0.0425,0.8332,0.0575,0.1679,0.0308,-0.3668,-0.1444,0.8609,0.1708,0.053,0.0787,1
-0.2276,0.082,0.3106,0.4223,-0.4925,-0.0425,0.8332,0.0575,0.1679,0.0308,-0.3668,-0.1444,0.8609,0.1708,0.053,0.0787,2
-0.2261,0.1211,0.3157,0.4173,-0.4925,-0.0425,0.8332,0.0575,0.1679,0.0308,-0.3668,-0.1444,0.8609,0.1708,0.053,0.0787,2
-0.2241,0.1612,0.3207,0.4126,-0.5019,-0.0388,0.8482,0.0394,0.1429,0.0621,-0.3722,-0.1432,0.876,0.161,0.0131,0.1153,2
-0.2241,0.1612,0.3207,0.4126,-0.5019,-0.0388,0.8482,0.0394,0.1429,0.0621,-0.3722,-0.1432,0.876,0.161,0.0131,0.1153,2
-0.2216,0.2013,0.3258,0.4081,-0.5019,-0.0388,0.8482,0.0394,0.1429,0.0621,-0.3722,-0.1432,0.876,0.161,0.0131,0.1153,3
-0.2186,0.2405,0.3307,0.404,-0.5098,-0.0342,0.8645,0.0171,0.1131,0.0946,-0.3782,-0.1405,0.8912,0.1534,-0.0284,0.1512,3
-0.2186,0.2405,0.3307,0.404,-0.5098,-0.0342,0.8645,0.0171,0.1131,0.0946,-0.3782,-0.1405,0.8912,0.1534,-0.0284,0.1512,3
-0.2151,0.2779,0.3356,0.4003,-0.5098,-0.0342,0.8645,0.0171,0.1131,0.0946,-0.3782,-0.1405,0.8912,0.1534,-0.0284,0.1512,4
-0.2112,0.3126,0.3405,0.397,-0.5163,-0.0293,0.8817,-0.0083,0.0794,0.1271,-0.3855,-0.1366,0.9067,0.1478,-0.0707,0.1853,4
-0.2112,0.3126,0.3405,0.397,-0.5163,-0.0293,0.8817,-0.0083,0.0794,0.1271,-0.3855,-0.1366,0.9067,0.1478,-0.0707,0.1853,4
-0.2069,0.3437,0.3454,0.394,-0.5163,-0.0293,0.8817,-0.0083,0.0794,0.1271,-0.3855,-0.1366,0.9067,0.1478,-0.0707,0.1853,5
-0.2023,0.3704,0.3503,0.3912,-0.5215,-0.0245,0.8994,-0.035,0.043,0.1582,-0.3944,-0.1316,0.9226,0.1437,-0.1128,0.2165,5
-0.2023,0.3704,0.3503,0.3912,-0.5215,-0.0245,0.8994,-0.035,0.043,0.1582,-0.3944,-0.1316,0.9226,0.1437,-0.1128,0.2165,5
-0.1973,0.3921,0.3551,0.3884,-0.5238,-0.0222,0.9083,-0.0482,0.024,0.1728,-0.3996,-0.1287,0.9307,0.1418,-0.1335,0.2306,5
-0.1921,0.4082,0.3599,0.3856,-0.5259,-0.02,0.9172,-0.061,0.0048,0.1865,-0.4052,-0.1257,0.939,0.1399,-0.1539,0.2435,6
-0.1921,0.4082,0.3599,0.3856,-0.5259,-0.02,0.9172,-0.061,0.0048,0.1865,-0.4052,-0.1257,0.939,0.1399,-0.1539,0.2435,6
-0.1868,0.4184,0.3647,0.3826,-0.5281,-0.0177,0.926,-0.0735,-0.0146,0.199,-0.4112,-0.1227,0.9474,0.1379,-0.174,0.2551,6
-0.1814,0.4223,0.3694,0.3791,-0.5303,-0.0155,0.9347,-0.0854,-0.0341,0.2104,-0.4177,-0.1195,0.9559,0.1357,-0.1936,0.2654,7
-0.1814,0.4223,0.3694,0.3791,-0.5303,-0.0155,0.9347,-0.0854,-0.0341,0.2104,-0.4177,-0.1195,0.9559,0.1357,-0.1936,0.2654,7
-0.176,0.4198,0.3741,0.3749,-0.5327,-0.0132,0.9434,-0.0969,-0.0535,0.2204,-0.4245,-0.1164,0.9647,0.1332,-0.2128,0.2742,7
-0.1707,0.4112,0.3787,0.3699,-0.5354,-0.0107,0.952,-0.1081,-0.0728,0.2291,-0.4318,-0.1134,0.9737,0.1305,-0.2315,0.2814,8
-0.1707,0.4112,0.3787,0.3699,-0.5354,-0.0107,0.952,-0.1081,-0.0728,0.2291,-0.4318,-0.1134,0.9737,0.1305,-0.2315,0.2814,8
-0.1656,0.3965,0.3833,0.3637,-0.5384,-0.008,0.9608,-0.119,-0.0919,0.2362,-0.4392,-0.1104,0.9831,0.1275,-0.2498,0.2872,8
-0.1607,0.3763,0.3877,0.3564,-0.5419,-0.0051,0.9696,-0.1298,-0.1107,0.242,-0.4469,-0.1074,0.9927,0.1242,-0.2676,0.2914,8
-0.1607,0.3763,0.3877,0.3564,-0.5419,-0.0051,0.9696,-0.1298,-0.1107,0.242,-0.4469,-0.1074,0.9927,0.1242,-0.2676,0.2914,9
-0.1561,0.351,0.3921,0.3477,-0.5458,-0.0018,0.9786,-0.1405,-0.1291,0.2464,-0.4548,-0.1044,1.0026,0.1207,-0.2849,0.2942,9
-0.1518,0.3215,0.3963,0.3375,-0.5501,0.0017,0.9878,-0.1514,-0.1472,0.2496,-0.4626,-0.1014,1.0128,0.1171,-0.3016,0.2957,9
-0.1518,0.3215,0.3963,0.3375,-0.5501,0.0017,0.9878,-0.1514,-0.1472,0.2496,-0.4626,-0.1014,1.0128,0.1171,-0.3016,0.2957,10
-0.148,0.2884,0.4004,0.3257,-0.5549,0.0056,0.9972,-0.1622,-0.1648,0.2516,-0.4703,-0.0984,1.0233,0.1132,-0.3178,0.2958,10
-0.1446,0.2528,0.4043,0.3122,-0.5601,0.0098,1.0068,-0.1732,-0.1819,0.2526,-0.4778,-0.0951,1.0341,0.1092,-0.3333,0.2949,10
-0.1446,0.2528,0.4043,0.3122,-0.5601,0.0098,1.0068,-0.1732,-0.1819,0.2526,-0.4778,-0.0951,1.0341,0.1092,-0.3333,0.2949,11
-0.1417,0.2156,0.408,0.2969,-0.5655,0.0144,1.0165,-0.1841,-0.1986,0.2527,-0.4851,-0.0916,1.0449,0.1051,-0.3479,0.2931,11
-0.1392,0.1778,0.4114,0.2797,-0.5712,0.0192,1.0263,-0.1948,-0.2147,0.2521,-0.4918,-0.0878,1.0558,0.1007,-0.3616,0.2905,11
-0.1392,0.1778,0.4114,0.2797,-0.5712,0.0192,1.0263,-0.1948,-0.2147,0.2521,-0.4918,-0.0878,1.0558,0.1007,-0.3616,0.2905,11
-0.1372,0.1404,0.4147,0.2604,-0.5712,0.0192,1.0263,-0.1948,-0.2147,0.2521,-0.4918,-0.0878,1.0558,0.1007,-0.3616,0.2905,12
-0.1357,0.1043,0.4176,0.239,-0.5829,0.0299,1.0458,-0.2151,-0.2452,0.2494,-0.5036,-0.0788,1.0771,0.0912,-0.3854,0.2841,12
-0.1357,0.1043,0.4176,0.239,-0.5829,0.0299,1.0458,-0.2151,-0.2452,0.2494,-0.5036,-0.0788,1.0771,0.0912,-0.3854,0.2841,12
-0.1346,0.0704,0.4203,0.2152,-0.5829,0.0299,1.0458,-0.2151,-0.2452,0.2494,-0.5036,-0.0788,1.0771,0.0912,-0.3854,0.2841,13
-0.1339,0.0395,0.4226,0.1889,-0.594,0.0419,1.0642,-0.2325,-0.2732,0.2457,-0.5125,-0.0676,1.0968,0.08,-0.403,0.2775,13
-0.1339,0.0395,0.4226,0.1889,-0.594,0.0419,1.0642,-0.2325,-0.2732,0.2457,-0.5125,-0.0676,1.0968,0.08,-0.403,0.2775,13
-0.1335,0.0122,0.4245,0.1598,-0.594,0.0419,1.0642,-0.2325,-0.2732,0.2457,-0.5125,-0.0676,1.0968,0.08,-0.403,0.2775,14
-0.1335,0.0122,0.4245,0.1598,-0.6033,0.0549,1.0801,-0.2449,-0.2982,0.2421,-0.518,-0.0538,1.1133,0.0663,-0.4131,0.2727,14
-0.1335,-0.011,0.426,0.1275,-0.6033,0.0549,1.0801,-0.2449,-0.2982,0.2421,-0.518,-0.0538,1.1133,0.0663,-0.4131,0.2727,14
-0.1338,-0.0298,0.4271,0.0918,-0.6033,0.0549,1.0801,-0.2449,-0.2982,0.2421,-0.518,-0.0538,1.1133,0.0663,-0.4131,0.2727,15
-0.1343,-0.044,0.4277,0.0524,-0.6095,0.0688,1.0919,-0.2503,-0.3197,0.2394,-0.5198,-0.0373,1.1248,0.0489,-0.4145,0.2713,15
-0.1343,-0.044,0.4277,0.0524,-0.6095,0.0688,1.0919,-0.2503,-0.3197,0.2394,-0.5198,-0.0373,1.1248,0.0489,-0.4145,0.2713,15
-0.1349,-0.0534,0.4277,0.0087,-0.6095,0.0688,1.0919,-0.2503,-0.3197,0.2394,-0.5198,-0.0373,1.1248,0.0489,-0.4145,0.2713,15
-0.1356,-0.0582,0.4271,-0.0395,-0.6117,0.0834,1.0977,-0.2471,-0.3371,0.2384,-0.5182,-0.0181,1.13,0.0267,-0.4068,0.2744,16
-0.1356,-0.0582,0.4271,-0.0395,-0.6117,0.0834,1.0977,-0.2471,-0.3371,0.2384,-0.5182,-0.0181,1.13,0.0267,-0.4068,0.2744,16
-0.1363,-0.0582,0.4259,-0.0925,-0.6111,0.091,1.0979,-0.242,-0.3441,0.2386,-0.5162,-0.0078,1.1298,0.0135,-0.3995,0.2779,16
-0.137,-0.0539,0.424,-0.1507,-0.6092,0.0988,1.0962,-0.2348,-0.3498,0.2393,-0.5135,0.0029,1.1276,-0.0012,-0.39,0.2829,17
-0.137,-0.0539,0.424,-0.1507,-0.6092,0.0988,1.0962,-0.2348,-0.3498,0.2393,-0.5135,0.0029,1.1276,-0.0012,-0.39,0.2829,17
-0.1376,-0.0454,0.4213,-0.2142,-0.6062,0.1068,1.0925,-0.2254,-0.3541,0.2404,-0.5102,0.0138,1.1234,-0.0173,-0.3782,0.2892,17
-0.1381,-0.033,0.4179,-0.2831,-0.6021,0.115,1.0868,-0.2143,-0.357,0.2421,-0.5065,0.0249,1.1172,-0.0348,-0.3642,0.297,18
-0.1381,-0.033,0.4179,-0.2831,-0.6021,0.115,1.0868,-0.2143,-0.357,0.2421,-0.5065,0.0249,1.1172,-0.0348,-0.3642,0.297,18
-0.1385,-0.017,0.4135,-0.3575,-0.5969,0.1234,1.0792,-0.2017,-0.3584,0.2442,-0.5024,0.0358,1.109,-0.0536,-0.3481,0.306,18
-0.1386,0.0023,0.4082,-0.4371,-0.5906,0.1319,1.0697,-0.188,-0.3583,0.2468,-0.4981,0.0466,1.0989,-0.0734,-0.3298,0.3164,18
-0.1386,0.0023,0.4082,-0.4371,-0.5906,0.1319,1.0697,-0.188,-0.3583,0.2468,-0.4981,0.0466,1.0989,-0.0734,-0.3298,0.3164,19
-0.1384,0.0245,0.4019,-0.5216,-0.5835,0.1405,1.0585,-0.1735,-0.3565,0.2498,-0.4937,0.0571,1.0871,-0.0941,-0.3093,0.3278,19
-0.138,0.0494,0.3946,-0.6105,-0.5756,0.1492,1.0458,-0.1588,-0.3531,0.2531,-0.4894,0.067,1.0737,-0.1155,-0.2866,0.3403,19
-0.138,0.0494,0.3946,-0.6105,-0.5756,0.1492,1.0458,-0.1588,-0.3531,0.2531,-0.4894,0.067,1.0737,-0.1155,-0.2866,0.3403,20
-0.1372,0.0766,0.3862,-0.7032,-0.567,0.1578,1.0318,-0.1441,-0.3479,0.2568,-0.4853,0.0763,1.059,-0.1372,-0.2616,0.3536,20
-0.1361,0.1059,0.3767,-0.7988,-0.5579,0.1662,1.0168,-0.1298,-0.341,0.2609,-0.4815,0.0849,1.0432,-0.1589,-0.2342,0.3676,20
-0.1361,0.1059,0.3767,-0.7988,-0.5579,0.1662,1.0168,-0.1298,-0.341,0.2609,-0.4815,0.0849,1.0432,-0.1589,-0.2342,0.3676,21
-0.1346,0.1371,0.3661,-0.8966,-0.5485,0.1745,1.001,-0.1163,-0.3324,0.2652,-0.4782,0.0927,1.0264,-0.1804,-0.2045,0.382,21
-0.1327,0.17,0.3544,-0.9954,-0.5388,0.1823,0.9848,-0.1039,-0.322,0.2697,-0.4754,0.0996,1.0091,-0.2015,-0.1723,0.3967,21
-0.1327,0.17,0.3544,-0.9954,-0.5388,0.1823,0.9848,-0.1039,-0.322,0.2697,-0.4754,0.0996,1.0091,-0.2015,-0.1723,0.3967,21
-0.1304,0.2045,0.3415,-1.0942,-0.529,0.1897,0.9683,-0.0926,-0.31,0.2744,-0.4733,0.1055,0.9914,-0.2217,-0.1377,0.4115,22
-0.1276,0.2402,0.3274,-1.1919,-0.5192,0.1965,0.9519,-0.0827,-0.2964,0.2792,-0.4719,0.1104,0.9736,-0.2409,-0.1008,0.4262,22
-0.1276,0.2402,0.3274,-1.1919,-0.5192,0.1965,0.9519,-0.0827,-0.2964,0.2792,-0.4719,0.1104,0.9736,-0.2409,-0.1008,0.4262,22
-0.1243,0.2771,0.3123,-1.287,-0.5096,0.2026,0.9358,-0.0743,-0.2813,0.284,-0.4712,0.1142,0.9561,-0.2589,-0.0617,0.4405,23
-0.1206,0.3149,0.2961,-1.3784,-0.5003,0.2079,0.9203,-0.0674,-0.2648,0.2888,-0.4714,0.1169,0.939,-0.2756,-0.0206,0.4543,23
-0.1206,0.3149,0.2961,-1.3784,-0.5003,0.2079,0.9203,-0.0674,-0.2648,0.2888,-0.4714,0.1169,0.939,-0.2756,-0.0206,0.4543,23
-0.1164,0.3533,0.2789,-1.4646,-0.4913,0.2122,0.9055,-0.0619,-0.2471,0.2934,-0.4723,0.1185,0.9225,-0.2906,0.0221,0.4673,24
-0.1118,0.3922,0.2607,-1.5442,-0.4828,0.2156,0.8917,-0.0577,-0.2284,0.2978,-0.4739,0.119,0.9069,-0.3041,0.0661,0.4794,24
-0.1118,0.3922,0.2607,-1.5442,-0.4828,0.2156,0.8917,-0.0577,-0.2284,0.2978,-0.4739,0.119,0.9069,-0.3041,0.0661,0.4794,24
-0.1066,0.4312,0.2417,-1.6161,-0.4748,0.2178,0.8789,-0.0548,-0.2088,0.302,-0.4761,0.1184,0.8924,-0.3159,0.1109,0.4904,24
-0.101,0.4699,0.2219,-1.6789,-0.4672,0.2189,0.8674,-0.0531,-0.1886,0.3057,-0.479,0.1168,0.879,-0.3259,0.1559,0.5001,25
-0.101,0.4699,0.2219,-1.6789,-0.4672,0.2189,0.8674,-0.0531,-0.1886,0.3057,-0.479,0.1168,0.879,-0.3259,0.1559,0.5001,25
-0.0949,0.5079,0.2014,-1.7317,-0.4603,0.2188,0.8571,-0.0522,-0.168,0.3091,-0.4823,0.1143,0.8669,-0.3344,0.2007,0.5084,25
-0.0884,0.5449,0.1804,-1.7734,-0.4539,0.2175,0.8481,-0.0522,-0.1472,0.3119,-0.4859,0.1107,0.8562,-0.3412,0.2446,0.5152,26
-0.0884,0.5449,0.1804,-1.7734,-0.4539,0.2175,0.8481,-0.0522,-0.1472,0.3119,-0.4859,0.1107,0.8562,-0.3412,0.2446,0.5152,26
-0.0814,0.5804,0.1591,-1.8033,-0.4481,0.215,0.8404,-0.0527,-0.1264,0.3142,-0.4898,0.1064,0.8468,-0.3466,0.287,0.5204,26
-0.074,0.6139,0.1374,-1.8209,-0.4427,0.2113,0.8339,-0.0536,-0.1059,0.3158,-0.4937,0.1012,0.8387,-0.3506,0.3272,0.5239,27
-0.074,0.6139,0.1374,-1.8209,-0.4427,0.2113,0.8339,-0.0536,-0.1059,0.3158,-0.4937,0.1012,0.8387,-0.3506,0.3272,0.5239,27
-0.0663,0.6451,0.1157,-1.8259,-0.4379,0.2066,0.8285,-0.0548,-0.086,0.3168,-0.4975,0.0954,0.832,-0.3534,0.3647,0.5256,27
-0.0581,0.6736,0.0939,-1.8181,-0.4335,0.2008,0.8242,-0.0561,-0.0668,0.3171,-0.501,0.089,0.8264,-0.3552,0.3988,0.5255,27
-0.0581,0.6736,0.0939,-1.8181,-0.4335,0.2008,0.8242,-0.0561,-0.0668,0.3171,-0.501,0.089,0.8264,-0.3552,0.3988,0.5255,28
-0.0497,0.699,0.0723,-1.7978,-0.4294,0.194,0.8208,-0.0573,-0.0486,0.3166,-0.5042,0.082,0.822,-0.3561,0.429,0.5235,28
-0.041,0.721,0.051,-1.7652,-0.4257,0.1865,0.8182,-0.0583,-0.0315,0.3155,-0.5069,0.0747,0.8186,-0.3565,0.4549,0.5197,28
-0.041,0.721,0.051,-1.7652,-0.4257,0.1865,0.8182,-0.0583,-0.0315,0.3155,-0.5069,0.0747,0.8186,-0.3565,0.4549,0.5197,29
-0.0321,0.7394,0.0302,-1.721,-0.4221,0.1782,0.8162,-0.0592,-0.0159,0.3135,-0.5089,0.0671,0.8161,-0.3563,0.4761,0.5141,29
-0.0229,0.754,0.0099,-1.666,-0.4187,0.1694,0.8147,-0.0597,-0.0018,0.3108,-0.5102,0.0592,0.8142,-0.3558,0.4922,0.5068,29
-0.0229,0.754,0.0099,-1.666,-0.4187,0.1694,0.8147,-0.0597,-0.0018,0.3108,-0.5102,0.0592,0.8142,-0.3558,0.4922,0.5068,30
-0.0137,0.7646,-0.0097,-1.6009,-0.4153,0.1601,0.8135,-0.0599,0.0106,0.3074,-0.5107,0.0513,0.8129,-0.3551,0.5032,0.4977,30
-0.0043,0.7712,-0.0285,-1.5271,-0.4119,0.1506,0.8124,-0.0597,0.0212,0.3033,-0.5102,0.0433,0.8121,-0.3543,0.5089,0.487,30
-0.0043,0.7712,-0.0285,-1.5271,-0.4119,0.1506,0.8124,-0.0597,0.0212,0.3033,-0.5102,0.0433,0.8121,-0.3543,0.5089,0.487,31
0.0052,0.7739,-0.0463,-1.4456,-0.4084,0.141,0.8114,-0.0593,0.03,0.2986,-0.5087,0.0354,0.8114,-0.3535,0.5094,0.4749,31
0.0146,0.7726,-0.0632,-1.3577,-0.4047,0.1314,0.8102,-0.0586,0.0371,0.2932,-0.5061,0.0276,0.8109,-0.3527,0.5049,0.4614,31
0.0146,0.7726,-0.0632,-1.3577,-0.4047,0.1314,0.8102,-0.0586,0.0371,0.2932,-0.5061,0.0276,0.8109,-0.3527,0.5049,0.4614,31
0.0241,0.7677,-0.0791,-1.265,-0.4008,0.122,0.8089,-0.0576,0.0424,0.2873,-0.5025,0.0201,0.8102,-0.352,0.4955,0.4467,32
0.0334,0.7593,-0.0939,-1.1687,-0.3966,0.1128,0.8073,-0.0566,0.0461,0.281,-0.4978,0.013,0.8095,-0.3513,0.4818,0.431,32
0.0334,0.7593,-0.0939,-1.1687,-0.3966,0.1128,0.8073,-0.0566,0.0461,0.281,-0.4978,0.013,0.8095,-0.3513,0.4818,0.431,32
0.0427,0.7478,-0.1075,-1.0704,-0.3921,0.1041,0.8053,-0.0554,0.0484,0.2743,-0.4921,0.0062,0.8084,-0.3507,0.4643,0.4144,33
0.0519,0.7336,-0.12,-0.9715,-0.3873,0.096,0.803,-0.0543,0.0494,0.2673,-0.4855,-0.0001,0.807,-0.35,0.4434,0.3971,33
0.0519,0.7336,-0.12,-0.9715,-0.3873,0.096,0.803,-0.0543,0.0494,0.2673,-0.4855,-0.0001,0.807,-0.35,0.4434,0.3971,33
0.0609,0.7172,-0.1313,-0.8735,-0.3822,0.0884,0.8003,-0.0532,0.0495,0.2601,-0.4779,-0.0058,0.8051,-0.3493,0.4199,0.3794,34
0.0697,0.699,-0.1415,-0.7776,-0.3767,0.0816,0.7973,-0.0524,0.049,0.2528,-0.4696,-0.011,0.8028,-0.3484,0.3945,0.3614,34
0.0697,0.699,-0.1415,-0.7776,-0.3767,0.0816,0.7973,-0.0524,0.049,0.2528,-0.4696,-0.011,0.8028,-0.3484,0.3945,0.3614,34
0.0783,0.6795,-0.1505,-0.6852,-0.371,0.0755,0.7939,-0.0517,0.048,0.2454,-0.4606,-0.0155,0.8,-0.3471,0.3678,0.3432,34
0.0868,0.6591,-0.1585,-0.5974,-0.3649,0.0703,0.7903,-0.0514,0.0471,0.2382,-0.4511,-0.0194,0.7967,-0.3455,0.3406,0.3252,35
0.0868,0.6591,-0.1585,-0.5974,-0.3649,0.0703,0.7903,-0.0514,0.0471,0.2382,-0.4511,-0.0194,0.7967,-0.3455,0.3406,0.3252,35
0.095,0.6383,-0.1655,-0.5153,-0.3587,0.0659,0.7865,-0.0514,0.0464,0.231,-0.4412,-0.0226,0.7929,-0.3434,0.3135,0.3075,35
0.103,0.6176,-0.1716,-0.4397,-0.3524,0.0624,0.7827,-0.0517,0.0464,0.224,-0.4312,-0.0252,0.7888,-0.3405,0.2872,0.2902,36
0.103,0.6176,-0.1716,-0.4397,-0.3524,0.0624,0.7827,-0.0517,0.0464,0.224,-0.4312,-0.0252,0.7888,-0.3405,0.2872,0.2902,36
0.1108,0.5972,-0.1768,-0.3714,-0.346,0.0598,0.7788,-0.0525,0.0473,0.2173,-0.4213,-0.0271,0.7844,-0.3368,0.2623,0.2734,36
0.1184,0.5775,-0.1812,-0.3108,-0.3396,0.0581,0.7751,-0.0536,0.0493,0.2109,-0.4115,-0.0284,0.7798,-0.3321,0.2393,0.2574,37
0.1184,0.5775,-0.1812,-0.3108,-0.3396,0.0581,0.7751,-0.0536,0.0493,0.2109,-0.4115,-0.0284,0.7798,-0.3321,0.2393,0.2574,37
0.1258,0.5587,-0.185,-0.2585,-0.3334,0.0572,0.7716,-0.0552,0.0528,0.2049,-0.4021,-0.0291,0.775,-0.3264,0.2186,0.2421,37
0.133,0.541,-0.1881,-0.2146,-0.3274,0.057,0.7685,-0.0571,0.0579,0.1992,-0.3933,-0.0292,0.7703,-0.3195,0.2005,0.2276,37
0.133,0.541,-0.1881,-0.2146,-0.3274,0.057,0.7685,-0.0571,0.0579,0.1992,-0.3933,-0.0292,0.7703,-0.3195,0.2005,0.2276,38
0.1401,0.5244,-0.1908,-0.1791,-0.3217,0.0577,0.7658,-0.0592,0.0647,0.1939,-0.3852,-0.0287,0.7657,-0.3112,0.1852,0.214,38
0.1469,0.5091,-0.193,-0.1519,-0.3165,0.059,0.7637,-0.0617,0.0732,0.189,-0.378,-0.0278,0.7614,-0.3016,0.1729,0.2013,38
0.1469,0.5091,-0.193,-0.1519,-0.3165,0.059,0.7637,-0.0617,0.0732,0.189,-0.378,-0.0278,0.7614,-0.3016,0.1729,0.2013,39
0.1536,0.4951,-0.195,-0.1329,-0.3118,0.0609,0.7623,-0.0643,0.0836,0.1846,-0.3717,-0.0264,0.7575,-0.2906,0.1636,0.1896,39
0.1601,0.4822,-0.1968,-0.1215,-0.3077,0.0634,0.7616,-0.067,0.0956,0.1805,-0.3665,-0.0246,0.7541,-0.2782,0.1571,0.1787,39
0.1601,0.4822,-0.1968,-0.1215,-0.3077,0.0634,0.7616,-0.067,0.0956,0.1805,-0.3665,-0.0246,0.7541,-0.2782,0.1571,0.1787,40
0.1665,0.4703,-0.1984,-0.1172,-0.3043,0.0664,0.7617,-0.0697,0.1092,0.1768,-0.3624,-0.0225,0.7514,-0.2643,0.1534,0.1686,40
0.1727,0.4594,-0.2,-0.1193,-0.3016,0.0698,0.7627,-0.0722,0.1241,0.1734,-0.3595,-0.02,0.7493,-0.2491,0.1523,0.1594,40
0.1727,0.4594,-0.2,-0.1193,-0.3016,0.0698,0.7627,-0.0722,0.1241,0.1734,-0.3595,-0.02,0.7493,-0.2491,0.1523,0.1594,40
0.1788,0.4492,-0.2017,-0.1271,-0.2997,0.0735,0.7645,-0.0746,0.1402,0.1703,-0.3577,-0.0172,0.7481,-0.2326,0.1533,0.151,41
0.1847,0.4396,-0.2034,-0.1396,-0.2987,0.0774,0.7673,-0.0766,0.1571,0.1674,-0.3572,-0.0142,0.7477,-0.215,0.1562,0.1432,41
0.1847,0.4396,-0.2034,-0.1396,-0.2987,0.0774,0.7673,-0.0766,0.1571,0.1674,-0.3572,-0.0142,0.7477,-0.215,0.1562,0.1432,41
0.1906,0.4304,-0.2053,-0.156,-0.2984,0.0815,0.771,-0.0782,0.1745,0.1647,-0.3578,-0.0109,0.7483,-0.1963,0.1606,0.1361,42
0.1962,0.4214,-0.2074,-0.1752,-0.299,0.0857,0.7756,-0.0793,0.192,0.162,-0.3594,-0.0074,0.7498,-0.1768,0.1662,0.1294,42
0.1962,0.4214,-0.2074,-0.1752,-0.299,0.0857,0.7756,-0.0793,0.192,0.162,-0.3594,-0.0074,0.7498,-0.1768,0.1662,0.1294,42
0.2017,0.4125,-0.2098,-0.1964,-0.3004,0.09,0.781,-0.0796,0.2093,0.1592,-0.3621,-0.0038,0.7523,-0.1566,0.1724,0.1233,43
0.2071,0.4036,-0.2123,-0.2184,-0.3025,0.0941,0.7871,-0.0792,0.2259,0.1564,-0.3656,0.0001,0.7556,-0.1361,0.1791,0.1175,43
0.2071,0.4036,-0.2123,-0.2184,-0.3025,0.0941,0.7871,-0.0792,0.2259,0.1564,-0.3656,0.0001,0.7556,-0.1361,0.1791,0.1175,43
0.2124,0.3945,-0.2151,-0.2405,-0.3052,0.0982,0.7939,-0.0779,0.2416,0.1533,-0.3699,0.004,0.7599,-0.1155,0.1857,0.112,44
0.2174,0.3853,-0.2182,-0.2617,-0.3085,0.1021,0.8012,-0.0756,0.256,0.15,-0.3749,0.0081,0.7649,-0.0951,0.192,0.1067,44
0.2174,0.3853,-0.2182,-0.2617,-0.3085,0.1021,0.8012,-0.0756,0.256,0.15,-0.3749,0.0081,0.7649,-0.0951,0.192,0.1067,44
0.2224,0.3759,-0.2215,-0.2811,-0.3121,0.1057,0.8089,-0.0723,0.2688,0.1462,-0.3803,0.0123,0.7707,-0.0751,0.1976,0.1016,44
0.2272,0.3664,-0.225,-0.2981,-0.3161,0.1091,0.8169,-0.068,0.2798,0.142,-0.386,0.0165,0.777,-0.0559,0.2025,0.0965,45
0.2272,0.3664,-0.225,-0.2981,-0.3161,0.1091,0.8169,-0.068,0.2798,0.142,-0.386,0.0165,0.777,-0.0559,0.2025,0.0965,45
0.2318,0.3568,-0.2286,-0.3121,-0.3203,0.1122,0.825,-0.0625,0.2886,0.1372,-0.3919,0.0208,0.7838,-0.0376,0.2063,0.0915,45
0.2363,0.3471,-0.2324,-0.3224,-0.3245,0.1151,0.833,-0.056,0.2952,0.1319,-0.3978,0.0251,0.7909,-0.0206,0.2089,0.0864,46
0.2363,0.3471,-0.2324,-0.3224,-0.3245,0.1151,0.833,-0.056,0.2952,0.1319,-0.3978,0.0251,0.7909,-0.0206,0.2089,0.0864,46
0.2406,0.3376,-0.2363,-0.3287,-0.3287,0.1176,0.8407,-0.0485,0.2994,0.1259,-0.4036,0.0293,0.7981,-0.005,0.2103,0.0812,46
0.2448,0.3283,-0.2403,-0.3305,-0.3328,0.1199,0.8482,-0.0401,0.3013,0.1193,-0.4092,0.0335,0.8054,0.0089,0.2104,0.076,47
0.2448,0.3283,-0.2403,-0.3305,-0.3328,0.1199,0.8482,-0.0401,0.3013,0.1193,-0.4092,0.0335,0.8054,0.0089,0.2104,0.076,47
0.2488,0.3194,-0.2442,-0.3277,-0.3366,0.122,0.8551,-0.031,0.3007,0.1119,-0.4146,0.0376,0.8125,0.0211,0.2092,0.0707,47
0.2527,0.311,-0.2481,-0.32,-0.3402,0.1238,0.8614,-0.0212,0.2977,0.1038,-0.4195,0.0415,0.8193,0.0313,0.2066,0.0652,47
0.2527,0.311,-0.2481,-0.32,-0.3402,0.1238,0.8614,-0.0212,0.2977,0.1038,-0.4195,0.0415,0.8193,0.0313,0.2066,0.0652,48
0.2565,0.3031,-0.2519,-0.3074,-0.3435,0.1256,0.8669,-0.0111,0.2924,0.095,-0.4241,0.0452,0.8257,0.0396,0.2026,0.0596,48
0.2602,0.296,-0.2555,-0.2898,-0.3465,0.1272,0.8717,-0.0007,0.2851,0.0854,-0.4282,0.0487,0.8316,0.0459,0.1974,0.0538,48
0.2602,0.296,-0.2555,-0.2898,-0.3465,0.1272,0.8717,-0.0007,0.2851,0.0854,-0.4282,0.0487,0.8316,0.0459,0.1974,0.0538,49
0.2638,0.2898,-0.2588,-0.2673,-0.3493,0.1288,0.8756,0.0095,0.2758,0.0751,-0.4319,0.0519,0.837,0.0502,0.1908,0.0478,49
0.2673,0.2844,-0.2618,-0.2399,-0.3518,0.1303,0.8787,0.0195,0.2649,0.0641,-0.4351,0.0548,0.8417,0.0527,0.1831,0.0417,49
0.2673,0.2844,-0.2618,-0.2399,-0.3518,0.1303,0.8787,0.0195,0.2649,0.0641,-0.4351,0.0548,0.8417,0.0527,0.1831,0.0417,50
0.2707,0.2801,-0.2645,-0.2078,-0.3541,0.132,0.881,0.0288,0.2525,0.0525,-0.438,0.0573,0.8458,0.0535,0.1742,0.0354,50
0.2741,0.2767,-0.2667,-0.1713,-0.3563,0.1337,0.8825,0.0372,0.239,0.0402,-0.4406,0.0595,0.8494,0.0527,0.1642,0.0289,50
0.2741,0.2767,-0.2667,-0.1713,-0.3563,0.1337,0.8825,0.0372,0.239,0.0402,-0.4406,0.0595,0.8494,0.0527,0.1642,0.0289,50
0.2774,0.2745,-0.2685,-0.1307,-0.3584,0.1355,0.8833,0.0445,0.2246,0.0274,-0.4429,0.0611,0.8524,0.0505,0.1533,0.0221,51
0.2807,0.2734,-0.2698,-0.0862,-0.3607,0.1375,0.8835,0.0504,0.2096,0.0141,-0.445,0.0623,0.855,0.0471,0.1417,0.0151,51
0.2807,0.2734,-0.2698,-0.0862,-0.3607,0.1375,0.8835,0.0504,0.2096,0.0141,-0.445,0.0623,0.855,0.0471,0.1417,0.0151,51
0.2839,0.2733,-0.2705,-0.0384,-0.363,0.1395,0.8832,0.0548,0.1943,0.0004,-0.4468,0.063,0.8572,0.0427,0.1294,0.0077,52
0.2872,0.2743,-0.2706,0.0122,-0.3656,0.1417,0.8826,0.0573,0.179,-0.0136,-0.4486,0.0633,0.8593,0.0375,0.1167,0,52
0.2872,0.2743,-0.2706,0.0122,-0.3656,0.1417,0.8826,0.0573,0.179,-0.0136,-0.4486,0.0633,0.8593,0.0375,0.1167,0,52
0.2905,0.2764,-0.27,0.065,-0.3686,0.1439,0.8818,0.058,0.1639,-0.0278,-0.4504,0.0629,0.8614,0.0317,0.1036,-0.0081,53
0.2939,0.2794,-0.2688,0.1193,-0.3719,0.1461,0.881,0.0567,0.1492,-0.0422,-0.4521,0.0621,0.8636,0.0254,0.0904,-0.0166,53
0.2939,0.2794,-0.2688,0.1193,-0.3719,0.1461,0.881,0.0567,0.1492,-0.0422,-0.4521,0.0621,0.8636,0.0254,0.0904,-0.0166,53
0.2972,0.2834,-0.2669,0.1742,-0.3756,0.1484,0.8802,0.0534,0.1351,-0.0565,-0.4539,0.0608,0.866,0.019,0.0773,-0.0256,53
0.3007,0.2881,-0.2644,0.2288,-0.3798,0.1506,0.8798,0.0481,0.1217,-0.0707,-0.4558,0.059,0.8687,0.0124,0.0643,-0.0351,54
0.3007,0.2881,-0.2644,0.2288,-0.3798,0.1506,0.8798,0.0481,0.1217,-0.0707,-0.4558,0.059,0.8687,0.0124,0.0643,-0.0351,54
0.3042,0.2936,-0.2611,0.2822,-0.3846,0.1526,0.8797,0.0409,0.1091,-0.0845,-0.4578,0.0568,0.872,0.0058,0.0515,-0.0451,54
0.3077,0.2995,-0.2573,0.3333,-0.3899,0.1545,0.8802,0.0319,0.0973,-0.098,-0.4601,0.0541,0.8758,-0.0006,0.0391,-0.0556,55
0.3077,0.2995,-0.2573,0.3333,-0.3899,0.1545,0.8802,0.0319,0.0973,-0.098,-0.4601,0.0541,0.8758,-0.0006,0.0391,-0.0556,55
0.3114,0.3058,-0.2528,0.3812,-0.3957,0.1562,0.8814,0.0213,0.0863,-0.111,-0.4627,0.0511,0.8803,-0.0068,0.0271,-0.0666,55
0.3151,0.3122,-0.2478,0.4249,-0.4022,0.1577,0.8833,0.0091,0.076,-0.1233,-0.4655,0.0476,0.8856,-0.0126,0.0154,-0.078,56
0.3151,0.3122,-0.2478,0.4249,-0.4022,0.1577,0.8833,0.0091,0.076,-0.1233,-0.4655,0.0476,0.8856,-0.0126,0.0154,-0.078,56
0.3189,0.3184,-0.2423,0.4636,-0.4092,0.159,0.8863,-0.0046,0.0664,-0.1348,-0.4688,0.0439,0.8917,-0.0178,0.0041,-0.0899,56
0.3228,0.3241,-0.2363,0.4965,-0.4169,0.16,0.8902,-0.0194,0.0572,-0.1454,-0.4724,0.0397,0.8986,-0.0224,-0.007,-0.102,56
0.3228,0.3241,-0.2363,0.4965,-0.4169,0.16,0.8902,-0.0194,0.0572,-0.1454,-0.4724,0.0397,0.8986,-0.0224,-0.007,-0.102,57
0.3267,0.3291,-0.23,0.5229,-0.4252,0.1607,0.8953,-0.0354,0.0484,-0.1551,-0.4766,0.0353,0.9065,-0.0262,-0.0179,-0.1143,57
0.3307,0.333,-0.2234,0.5425,-0.4341,0.1611,0.9016,-0.0523,0.0398,-0.1637,-0.4812,0.0307,0.9155,-0.0291,-0.0289,-0.1268,57
0.3307,0.333,-0.2234,0.5425,-0.4341,0.1611,0.9016,-0.0523,0.0398,-0.1637,-0.4812,0.0307,0.9155,-0.0291,-0.0289,-0.1268,58
0.3348,0.3355,-0.2166,0.5548,-0.4435,0.1611,0.9092,-0.0699,0.0312,-0.1712,-0.4862,0.0257,0.9254,-0.0309,-0.0402,-0.1392,58
0.3389,0.3363,-0.2097,0.5599,-0.4535,0.1608,0.9181,-0.0882,0.0225,-0.1774,-0.4918,0.0205,0.9363,-0.0316,-0.052,-0.1514,58
0.3389,0.3363,-0.2097,0.5599,-0.4535,0.1608,0.9181,-0.0882,0.0225,-0.1774,-0.4918,0.0205,0.9363,-0.0316,-0.052,-0.1514,59
0.343,0.3352,-0.2028,0.5577,-0.4535,0.1608,0.9181,-0.0882,0.0225,-0.1774,-0.4918,0.0205,0.9363,-0.0316,-0.052,-0.1514,59
0.347,0.332,-0.1959,0.5484,-0.4747,0.1587,0.9397,-0.1256,0.0048,-0.1863,-0.5039,0.0096,0.9611,-0.0296,-0.0781,-0.1747,59
0.347,0.332,-0.1959,0.5484,-0.4747,0.1587,0.9397,-0.1256,0.0048,-0.1863,-0.5039,0.0096,0.9611,-0.0296,-0.0781,-0.1747,60
0.351,0.3265,-0.1893,0.5326,-0.4857,0.1568,0.9523,-0.1443,-0.0044,-0.1889,-0.5104,0.004,0.9748,-0.0268,-0.0928,-0.1856,60
0.355,0.3187,-0.1828,0.5105,-0.4969,0.1544,0.966,-0.1627,-0.0138,-0.1902,-0.5171,-0.0017,0.9892,-0.023,-0.1087,-0.1958,60
0.355,0.3187,-0.1828,0.5105,-0.4969,0.1544,0.966,-0.1627,-0.0138,-0.1902,-0.5171,-0.0017,0.9892,-0.023,-0.1087,-0.1958,60
0.3588,0.3084,-0.1767,0.4831,-0.508,0.1512,0.9805,-0.1803,-0.0233,-0.1904,-0.524,-0.0075,1.0042,-0.0182,-0.1259,-0.2051,61
0.3625,0.2958,-0.171,0.451,-0.519,0.1474,0.9958,-0.1971,-0.0329,-0.1894,-0.5308,-0.0132,1.0195,-0.0127,-0.1442,-0.2134,61
0.3625,0.2958,-0.171,0.451,-0.519,0.1474,0.9958,-0.1971,-0.0329,-0.1894,-0.5308,-0.0132,1.0195,-0.0127,-0.1442,-0.2134,61
0.366,0.2807,-0.1656,0.4151,-0.5298,0.1429,1.0116,-0.2127,-0.0425,-0.1873,-0.5376,-0.0189,1.0351,-0.0067,-0.1635,-0.2207,62
0.3694,0.2632,-0.1608,0.3763,-0.5401,0.1377,1.0277,-0.2269,-0.052,-0.1843,-0.5442,-0.0246,1.0505,-0.0003,-0.1834,-0.2269,62
0.3694,0.2632,-0.1608,0.3763,-0.5401,0.1377,1.0277,-0.2269,-0.052,-0.1843,-0.5442,-0.0246,1.0505,-0.0003,-0.1834,-0.2269,62
0.3725,0.2432,-0.1564,0.3357,-0.5498,0.1317,1.0439,-0.2394,-0.0613,-0.1805,-0.5507,-0.0301,1.0656,0.0061,-0.2036,-0.2319,63
0.3754,0.2208,-0.1525,0.2943,-0.5589,0.1249,1.0598,-0.2499,-0.0703,-0.1761,-0.5568,-0.0356,1.0801,0.0124,-0.2238,-0.2357,63
0.3754,0.2208,-0.1525,0.2943,-0.5589,0.1249,1.0598,-0.2499,-0.0703,-0.1761,-0.5568,-0.0356,1.0801,0.0124,-0.2238,-0.2357,63
0.378,0.1958,-0.1492,0.2529,-0.5672,0.1175,1.0751,-0.2582,-0.0789,-0.1711,-0.5627,-0.0409,1.0937,0.0181,-0.2434,-0.2382,63
0.3803,0.1684,-0.1463,0.2126,-0.5745,0.1093,1.0895,-0.2641,-0.0872,-0.1659,-0.5681,-0.046,1.1061,0.023,-0.262,-0.2394,64
0.3803,0.1684,-0.1463,0.2126,-0.5745,0.1093,1.0895,-0.2641,-0.0872,-0.1659,-0.5681,-0.046,1.1061,0.023,-0.262,-0.2394,64
0.3822,0.1382,-0.144,0.1743,-0.5809,0.1004,1.1026,-0.2673,-0.0951,-0.1605,-0.5731,-0.051,1.1169,0.0269,-0.2792,-0.2394,64
0.3838,0.1053,-0.142,0.1388,-0.5862,0.0908,1.1143,-0.2677,-0.1025,-0.1554,-0.5777,-0.0559,1.1258,0.0295,-0.2944,-0.2383,65
0.3838,0.1053,-0.142,0.1388,-0.5862,0.0908,1.1143,-0.2677,-0.1025,-0.1554,-0.5777,-0.0559,1.1258,0.0295,-0.2944,-0.2383,65
0.3849,0.0694,-0.1405,0.1067,-0.5903,0.0806,1.124,-0.2651,-0.1096,-0.1506,-0.5816,-0.0606,1.1324,0.0306,-0.3075,-0.236,65
0.3856,0.0303,-0.1394,0.0788,-0.5933,0.0699,1.1317,-0.2594,-0.1164,-0.1464,-0.585,-0.0653,1.1365,0.03,-0.3178,-0.2328,66
0.3856,0.0303,-0.1394,0.0788,-0.5933,0.0699,1.1317,-0.2594,-0.1164,-0.1464,-0.585,-0.0653,1.1365,0.03,-0.3178,-0.2328,66
0.3858,-0.012,-0.1386,0.0556,-0.5951,0.0588,1.1369,-0.2505,-0.1228,-0.143,-0.5878,-0.0698,1.1379,0.0277,-0.3254,-0.2287,66
0.3855,-0.0579,-0.138,0.0374,-0.5957,0.0475,1.1395,-0.2384,-0.1289,-0.1407,-0.5899,-0.0744,1.1362,0.0236,-0.3298,-0.2239,66
0.3855,-0.0579,-0.138,0.0374,-0.5957,0.0475,1.1395,-0.2384,-0.1289,-0.1407,-0.5899,-0.0744,1.1362,0.0236,-0.3298,-0.2239,67
0.3846,-0.1074,-0.1376,0.0247,-0.5953,0.036,1.1393,-0.2232,-0.1349,-0.1395,-0.5914,-0.0791,1.1314,0.0178,-0.3311,-0.2187,67
0.3831,-0.1606,-0.1373,0.0176,-0.5938,0.0247,1.1363,-0.205,-0.1405,-0.1397,-0.5923,-0.0838,1.1233,0.0104,-0.3292,-0.2131,67
0.3831,-0.1606,-0.1373,0.0176,-0.5938,0.0247,1.1363,-0.205,-0.1405,-0.1397,-0.5923,-0.0838,1.1233,0.0104,-0.3292,-0.2131,68
0.3809,-0.2176,-0.1371,0.0162,-0.5914,0.0135,1.1304,-0.1842,-0.1459,-0.1414,-0.5924,-0.0888,1.1121,0.0016,-0.3241,-0.2074,68
0.3779,-0.2783,-0.1369,0.0207,-0.5881,0.0028,1.1217,-0.1608,-0.1509,-0.1446,-0.592,-0.0939,1.0977,-0.0083,-0.3161,-0.202,68
0.3779,-0.2783,-0.1369,0.0207,-0.5881,0.0028,1.1217,-0.1608,-0.1509,-0.1446,-0.592,-0.0939,1.0977,-0.0083,-0.3161,-0.202,69
0.3742,-0.3427,-0.1365,0.031,-0.5841,-0.0073,1.1104,-0.1354,-0.1553,-0.1493,-0.5909,-0.0993,1.0803,-0.0188,-0.3053,-0.1969,69
0.3697,-0.4105,-0.136,0.0471,-0.5795,-0.0166,1.0964,-0.1083,-0.1591,-0.1556,-0.5891,-0.1049,1.0603,-0.0296,-0.292,-0.1926,69
0.3697,-0.4105,-0.136,0.0471,-0.5795,-0.0166,1.0964,-0.1083,-0.1591,-0.1556,-0.5891,-0.1049,1.0603,-0.0296,-0.292,-0.1926,69
0.3643,-0.4815,-0.1352,0.0686,-0.5744,-0.0251,1.0802,-0.0799,-0.162,-0.1633,-0.5868,-0.1108,1.0379,-0.0402,-0.2766,-0.1891,70
0.3581,-0.5554,-0.1341,0.0953,-0.5689,-0.0325,1.062,-0.0507,-0.1637,-0.1724,-0.584,-0.1169,1.0134,-0.0501,-0.2593,-0.1868,70
0.3581,-0.5554,-0.1341,0.0953,-0.5689,-0.0325,1.062,-0.0507,-0.1637,-0.1724,-0.584,-0.1169,1.0134,-0.0501,-0.2593,-0.1868,70
0.3509,-0.6316,-0.1327,0.1268,-0.5631,-0.0389,1.042,-0.0212,-0.1642,-0.1828,-0.5806,-0.1232,0.9873,-0.0587,-0.2407,-0.1859,71
0.3427,-0.7095,-0.1308,0.1626,-0.5572,-0.0441,1.0207,0.0083,-0.1631,-0.1943,-0.5767,-0.1296,0.9601,-0.0657,-0.221,-0.1866,71
0.3427,-0.7095,-0.1308,0.1626,-0.5572,-0.0441,1.0207,0.0083,-0.1631,-0.1943,-0.5767,-0.1296,0.9601,-0.0657,-0.221,-0.1866,71
0.3336,-0.7887,-0.1284,0.2021,-0.5513,-0.0481,0.9983,0.0373,-0.1602,-0.2067,-0.5723,-0.1362,0.9322,-0.0705,-0.2008,-0.189,72
0.3235,-0.8682,-0.1256,0.2447,-0.5456,-0.0509,0.9754,0.0654,-0.1555,-0.2197,-0.5675,-0.1427,0.9042,-0.0728,-0.1805,-0.1932,72
0.3235,-0.8682,-0.1256,0.2447,-0.5456,-0.0509,0.9754,0.0654,-0.1555,-0.2197,-0.5675,-0.1427,0.9042,-0.0728,-0.1805,-0.1932,72
0.3124,-0.9474,-0.1221,0.2897,-0.5401,-0.0526,0.9523,0.0921,-0.1487,-0.2333,-0.5622,-0.1491,0.8765,-0.0722,-0.1603,-0.1992,73
0.3003,-1.0253,-0.1181,0.3364,-0.5349,-0.0531,0.9293,0.1173,-0.1399,-0.247,-0.5565,-0.1554,0.8495,-0.0685,-0.1406,-0.2072,73
0.3003,-1.0253,-0.1181,0.3364,-0.5349,-0.0531,0.9293,0.1173,-0.1399,-0.247,-0.5565,-0.1554,0.8495,-0.0685,-0.1406,-0.2072,73
0.2873,-1.101,-0.1135,0.3841,-0.5302,-0.0525,0.9068,0.1406,-0.129,-0.2607,-0.5504,-0.1613,0.8239,-0.0614,-0.1217,-0.2171,73
0.2734,-1.1735,-0.1084,0.4319,-0.526,-0.051,0.8852,0.1617,-0.1162,-0.2742,-0.5439,-0.1669,0.7999,-0.051,-0.1038,-0.2287,74
0.2734,-1.1735,-0.1084,0.4319,-0.526,-0.051,0.8852,0.1617,-0.1162,-0.2742,-0.5439,-0.1669,0.7999,-0.051,-0.1038,-0.2287,74
0.2586,-1.242,-0.1026,0.4791,-0.5225,-0.0486,0.8648,0.1806,-0.1015,-0.287,-0.5372,-0.1719,0.7779,-0.0373,-0.0871,-0.242,74
0.243,-1.3055,-0.0962,0.525,-0.5195,-0.0454,0.8459,0.1972,-0.0853,-0.2992,-0.5301,-0.1764,0.7583,-0.0203,-0.0717,-0.2568,75
0.243,-1.3055,-0.0962,0.525,-0.5195,-0.0454,0.8459,0.1972,-0.0853,-0.2992,-0.5301,-0.1764,0.7583,-0.0203,-0.0717,-0.2568,75
0.2266,-1.3632,-0.0893,0.5688,-0.5172,-0.0415,0.8286,0.2114,-0.0677,-0.3103,-0.5229,-0.1802,0.7414,-0.0003,-0.0576,-0.2729,75
0.2096,-1.4141,-0.0819,0.6098,-0.5156,-0.0371,0.8132,0.2231,-0.0491,-0.3202,-0.5156,-0.1832,0.7273,0.0224,-0.0451,-0.2899,76
0.2096,-1.4141,-0.0819,0.6098,-0.5156,-0.0371,0.8132,0.2231,-0.0491,-0.3202,-0.5156,-0.1832,0.7273,0.0224,-0.0451,-0.2899,76
0.1921,-1.4576,-0.074,0.6475,-0.5146,-0.0323,0.7998,0.2326,-0.0297,-0.3288,-0.5082,-0.1853,0.7162,0.0475,-0.034,-0.3078,76
0.174,-1.493,-0.0656,0.6812,-0.5141,-0.0272,0.7886,0.2399,-0.01,-0.3358,-0.5009,-0.1866,0.7081,0.0745,-0.0244,-0.3261,76
0.174,-1.493,-0.0656,0.6812,-0.5141,-0.0272,0.7886,0.2399,-0.01,-0.3358,-0.5009,-0.1866,0.7081,0.0745,-0.0244,-0.3261,77
0.1556,-1.5198,-0.0569,0.7104,-0.5141,-0.0219,0.7794,0.2451,0.0096,-0.3413,-0.4938,-0.1869,0.703,0.1031,-0.0162,-0.3445,77
0.1369,-1.5377,-0.0478,0.7348,-0.5144,-0.0166,0.7724,0.2486,0.0289,-0.3451,-0.4868,-0.1862,0.7009,0.1326,-0.0095,-0.3629,77
0.1369,-1.5377,-0.0478,0.7348,-0.5144,-0.0166,0.7724,0.2486,0.0289,-0.3451,-0.4868,-0.1862,0.7009,0.1326,-0.0095,-0.3629,78
0.118,-1.5464,-0.0385,0.7541,-0.515,-0.0113,0.7674,0.2503,0.0474,-0.3471,-0.48,-0.1846,0.7015,0.1627,-0.0041,-0.3809,78
0.0991,-1.5458,-0.029,0.768,-0.5158,-0.0061,0.7644,0.2508,0.0648,-0.3475,-0.4736,-0.182,0.7048,0.1926,0.0001,-0.3982,78
0.0991,-1.5458,-0.029,0.768,-0.5158,-0.0061,0.7644,0.2508,0.0648,-0.3475,-0.4736,-0.182,0.7048,0.1926,0.0001,-0.3982,79
0.0803,-1.5361,-0.0193,0.7765,-0.5166,-0.0012,0.7631,0.2501,0.0807,-0.3463,-0.4674,-0.1785,0.7104,0.222,0.003,-0.4147,79
0.0616,-1.5174,-0.0096,0.7797,-0.5172,0.0033,0.7634,0.2486,0.095,-0.3435,-0.4615,-0.1741,0.718,0.2502,0.0049,-0.4302,79
0.0616,-1.5174,-0.0096,0.7797,-0.5172,0.0033,0.7634,0.2486,0.095,-0.3435,-0.4615,-0.1741,0.718,0.2502,0.0049,-0.4302,79
0.0432,-1.49,0.0001,0.7777,-0.5176,0.0075,0.7651,0.2465,0.1073,-0.3394,-0.4558,-0.1689,0.7273,0.2769,0.0058,-0.4444,80
0.0252,-1.4546,0.0097,0.771,-0.5176,0.0113,0.7679,0.2441,0.1176,-0.334,-0.4503,-0.163,0.738,0.3014,0.006,-0.4574,80
0.0252,-1.4546,0.0097,0.771,-0.5176,0.0113,0.7679,0.2441,0.1176,-0.334,-0.4503,-0.163,0.738,0.3014,0.006,-0.4574,80
0.0077,-1.4117,0.0192,0.7599,-0.5171,0.0145,0.7715,0.2417,0.1256,-0.3275,-0.445,-0.1565,0.7497,0.3234,0.0056,-0.4689,81
-0.0093,-1.362,0.0285,0.7448,-0.5161,0.0173,0.7757,0.2394,0.1313,-0.3201,-0.4397,-0.1495,0.7619,0.3426,0.0048,-0.4789,81
-0.0093,-1.362,0.0285,0.7448,-0.5161,0.0173,0.7757,0.2394,0.1313,-0.3201,-0.4397,-0.1495,0.7619,0.3426,0.0048,-0.4789,81
-0.0256,-1.3063,0.0377,0.7265,-0.5144,0.0196,0.7803,0.2375,0.1347,-0.3121,-0.4345,-0.1421,0.7744,0.3587,0.0038,-0.4874,82
-0.0412,-1.2454,0.0465,0.7056,-0.5121,0.0214,0.7849,0.2362,0.1359,-0.3037,-0.4291,-0.1345,0.7868,0.3714,0.0029,-0.4944,82
-0.0412,-1.2454,0.0465,0.7056,-0.5121,0.0214,0.7849,0.2362,0.1359,-0.3037,-0.4291,-0.1345,0.7868,0.3714,0.0029,-0.4944,82
-0.0561,-1.1802,0.0551,0.6826,-0.509,0.0227,0.7895,0.2355,0.1349,-0.295,-0.4237,-0.1267,0.7987,0.3807,0.0022,-0.5,82
-0.0701,-1.1116,0.0634,0.6585,-0.5052,0.0236,0.7936,0.2355,0.1321,-0.2863,-0.4181,-0.1191,0.8098,0.3866,0.0019,-0.5041,83
-0.0701,-1.1116,0.0634,0.6585,-0.5052,0.0236,0.7936,0.2355,0.1321,-0.2863,-0.4181,-0.1191,0.8098,0.3866,0.0019,-0.5041,83
-0.0833,-1.0406,0.0713,0.6338,-0.5006,0.024,0.7972,0.2363,0.1276,-0.2777,-0.4123,-0.1116,0.82,0.3891,0.0023,-0.5069,83
-0.0956,-0.968,0.079,0.6093,-0.4954,0.024,0.8002,0.2378,0.1216,-0.2694,-0.4062,-0.1044,0.8289,0.3883,0.0033,-0.5084,84
-0.0956,-0.968,0.079,0.6093,-0.4954,0.024,0.8002,0.2378,0.1216,-0.2694,-0.4062,-0.1044,0.8289,0.3883,0.0033,-0.5084,84
-0.1071,-0.8947,0.0863,0.5857,-0.4895,0.0236,0.8023,0.24,0.1146,-0.2616,-0.3999,-0.0976,0.8364,0.3844,0.0052,-0.5086,84
-0.1176,-0.8216,0.0933,0.5634,-0.483,0.0229,0.8035,0.2427,0.1067,-0.2544,-0.3934,-0.0913,0.8424,0.3778,0.008,-0.5078,85
-0.1176,-0.8216,0.0933,0.5634,-0.483,0.0229,0.8035,0.2427,0.1067,-0.2544,-0.3934,-0.0913,0.8424,0.3778,0.008,-0.5078,85
-0.1273,-0.7496,0.1001,0.5431,-0.476,0.0219,0.8039,0.2459,0.0985,-0.2478,-0.3866,-0.0857,0.8468,0.3687,0.0118,-0.5059,85
-0.1361,-0.6793,0.1066,0.5251,-0.4685,0.0206,0.8033,0.2493,0.0901,-0.2419,-0.3798,-0.0808,0.8497,0.3576,0.0164,-0.503,85
-0.1361,-0.6793,0.1066,0.5251,-0.4685,0.0206,0.8033,0.2493,0.0901,-0.2419,-0.3798,-0.0808,0.8497,0.3576,0.0164,-0.503,86
-0.144,-0.6114,0.1128,0.5097,-0.4607,0.0191,0.8018,0.2527,0.082,-0.2367,-0.3728,-0.0766,0.8509,0.3449,0.022,-0.4993,86
-0.1512,-0.5466,0.1189,0.4971,-0.4527,0.0174,0.7994,0.256,0.0745,-0.2322,-0.3659,-0.0732,0.8506,0.3309,0.0284,-0.4947,86
-0.1512,-0.5466,0.1189,0.4971,-0.4527,0.0174,0.7994,0.256,0.0745,-0.2322,-0.3659,-0.0732,0.8506,0.3309,0.0284,-0.4947,87
-0.1576,-0.4853,0.1249,0.4874,-0.4445,0.0155,0.7963,0.2589,0.0678,-0.2285,-0.359,-0.0705,0.8489,0.3162,0.0355,-0.4895,87
-0.1633,-0.4281,0.1307,0.4806,-0.4363,0.0135,0.7925,0.2612,0.0622,-0.2254,-0.3523,-0.0686,0.8459,0.3011,0.0431,-0.4836,87
-0.1633,-0.4281,0.1307,0.4806,-0.4363,0.0135,0.7925,0.2612,0.0622,-0.2254,-0.3523,-0.0686,0.8459,0.3011,0.0431,-0.4836,88
-0.1683,-0.3751,0.1365,0.4766,-0.4283,0.0115,0.7881,0.2627,0.0579,-0.223,-0.3458,-0.0675,0.8417,0.286,0.0513,-0.477,88
-0.1727,-0.3268,0.1423,0.4751,-0.4204,0.0094,0.7832,0.2631,0.0551,-0.2211,-0.3397,-0.0671,0.8366,0.2714,0.0597,-0.47,88
-0.1727,-0.3268,0.1423,0.4751,-0.4204,0.0094,0.7832,0.2631,0.0551,-0.2211,-0.3397,-0.0671,0.8366,0.2714,0.0597,-0.47,89
-0.1765,-0.2831,0.148,0.476,-0.4128,0.0074,0.7781,0.2625,0.0539,-0.2196,-0.334,-0.0673,0.8307,0.2575,0.0683,-0.4624,89
-0.1798,-0.2443,0.1538,0.4788,-0.4057,0.0053,0.7728,0.2606,0.0543,-0.2185,-0.3287,-0.0681,0.8242,0.2446,0.0768,-0.4544,89
-0.1798,-0.2443,0.1538,0.4788,-0.4057,0.0053,0.7728,0.2606,0.0543,-0.2185,-0.3287,-0.0681,0.8242,0.2446,0.0768,-0.4544,89
-0.1827,-0.2101,0.1596,0.4833,-0.399,0.0033,0.7675,0.2574,0.0565,-0.2176,-0.3241,-0.0694,0.8174,0.233,0.0851,-0.4459,90
-0.1852,-0.1806,0.1655,0.489,-0.393,0.0014,0.7623,0.2528,0.0603,-0.2169,-0.3201,-0.0711,0.8104,0.2229,0.0931,-0.4371,90
-0.1852,-0.1806,0.1655,0.489,-0.393,0.0014,0.7623,0.2528,0.0603,-0.2169,-0.3201,-0.0711,0.8104,0.2229,0.0931,-0.4371,90
-0.1874,-0.1555,0.1715,0.4955,-0.3876,-0.0005,0.7573,0.2469,0.0657,-0.2163,-0.3167,-0.0732,0.8035,0.2143,0.1005,-0.4279,91
-0.1893,-0.1345,0.1775,0.5023,-0.3829,-0.0022,0.7527,0.2398,0.0726,-0.2158,-0.3141,-0.0756,0.7968,0.2075,0.1071,-0.4184,91
-0.1893,-0.1345,0.1775,0.5023,-0.3829,-0.0022,0.7527,0.2398,0.0726,-0.2158,-0.3141,-0.0756,0.7968,0.2075,0.1071,-0.4184,91
-0.191,-0.1174,0.1837,0.5092,-0.3789,-0.0039,0.7486,0.2315,0.0807,-0.2151,-0.3121,-0.0782,0.7905,0.2023,0.1129,-0.4087,92
-0.1925,-0.1037,0.19,0.5157,-0.3757,-0.0055,0.745,0.2222,0.0899,-0.2143,-0.3108,-0.081,0.7847,0.1987,0.1176,-0.3987,92
-0.1925,-0.1037,0.19,0.5157,-0.3757,-0.0055,0.745,0.2222,0.0899,-0.2143,-0.3108,-0.081,0.7847,0.1987,0.1176,-0.3987,92
-0.1938,-0.093,0.1963,0.5215,-0.3733,-0.0071,0.7421,0.2121,0.1,-0.2134,-0.3102,-0.0838,0.7796,0.1968,0.1212,-0.3886,92
-0.195,-0.085,0.2028,0.5264,-0.3718,-0.0086,0.7398,0.2015,0.1106,-0.2122,-0.3102,-0.0866,0.7753,0.1963,0.1235,-0.3783,93
-0.195,-0.085,0.2028,0.5264,-0.3718,-0.0086,0.7398,0.2015,0.1106,-0.2122,-0.3102,-0.0866,0.7753,0.1963,0.1235,-0.3783,93
-0.1961,-0.0793,0.2093,0.5301,-0.371,-0.0102,0.7382,0.1905,0.1214,-0.2108,-0.3108,-0.0894,0.7719,0.1972,0.1245,-0.3679,93
-0.1971,-0.0754,0.2158,0.5324,-0.371,-0.0117,0.7374,0.1794,0.1322,-0.2091,-0.3118,-0.0921,0.7693,0.1991,0.124,-0.3574,94
-0.1971,-0.0754,0.2158,0.5324,-0.371,-0.0117,0.7374,0.1794,0.1322,-0.2091,-0.3118,-0.0921,0.7693,0.1991,0.124,-0.3574,94
-0.1981,-0.0728,0.2224,0.5334,-0.3717,-0.0132,0.7372,0.1685,0.1426,-0.2071,-0.3133,-0.0947,0.7676,0.202,0.122,-0.3468,94
-0.1991,-0.0713,0.229,0.5328,-0.3732,-0.0148,0.7378,0.158,0.1524,-0.2049,-0.3151,-0.0972,0.7668,0.2055,0.1185,-0.3361,95
-0.1991,-0.0713,0.229,0.5328,-0.3732,-0.0148,0.7378,0.158,0.1524,-0.2049,-0.3151,-0.0972,0.7668,0.2055,0.1185,-0.3361,95
-0.2,-0.0703,0.2356,0.5308,-0.3732,-0.0148,0.7378,0.158,0.1524,-0.2049,-0.3151,-0.0972,0.7668,0.2055,0.1185,-0.3361,95
-0.201,-0.0696,0.2422,0.5273,-0.3782,-0.0181,0.7409,0.1389,0.1689,-0.1993,-0.3195,-0.1017,0.7678,0.2135,0.1071,-0.3143,95
-0.201,-0.0696,0.2422,0.5273,-0.3782,-0.0181,0.7409,0.1389,0.1689,-0.1993,-0.3195,-0.1017,0.7678,0.2135,0.1071,-0.3143,96
-0.2019,-0.0686,0.2487,0.5225,-0.3782,-0.0181,0.7409,0.1389,0.1689,-0.1993,-0.3195,-0.1017,0.7678,0.2135,0.1071,-0.3143,96
-0.2027,-0.067,0.2552,0.5165,-0.3856,-0.0216,0.7463,0.1233,0.1798,-0.1925,-0.3242,-0.1056,0.772,0.2215,0.09,-0.2919,96
-0.2027,-0.067,0.2552,0.5165,-0.3856,-0.0216,0.7463,0.1233,0.1798,-0.1925,-0.3242,-0.1056,0.772,0.2215,0.09,-0.2919,97
-0.2036,-0.0644,0.2616,0.5094,-0.3902,-0.0233,0.7498,0.117,0.1826,-0.1885,-0.3264,-0.1074,0.7751,0.2251,0.0795,-0.2802,97
-0.2044,-0.0605,0.2679,0.5015,-0.3953,-0.0251,0.7538,0.1115,0.1835,-0.1841,-0.3286,-0.1092,0.7788,0.2281,0.0678,-0.2683,97
-0.2044,-0.0605,0.2679,0.5015,-0.3953,-0.0251,0.7538,0.1115,0.1835,-0.1841,-0.3286,-0.1092,0.7788,0.2281,0.0678,-0.2683,98
-0.2051,-0.0549,0.2742,0.493,-0.4008,-0.0268,0.7582,0.1068,0.1825,-0.1793,-0.3305,-0.1108,0.7831,0.2305,0.055,-0.2559,98
-0.2058,-0.0472,0.2803,0.484,-0.4068,-0.0284,0.7631,0.1028,0.1794,-0.1739,-0.3322,-0.1125,0.7879,0.2324,0.0413,-0.243,98
-0.2058,-0.0472,0.2803,0.484,-0.4068,-0.0284,0.7631,0.1028,0.1794,-0.1739,-0.3322,-0.1125,0.7879,0.2324,0.0413,-0.243,98
-0.2063,-0.0372,0.2863,0.4748,-0.4131,-0.0299,0.7683,0.0992,0.1742,-0.168,-0.3337,-0.1142,0.7931,0.2336,0.0267,-0.2296,99
-0.2067,-0.0246,0.2922,0.4656,-0.4197,-0.0313,0.774,0.0958,0.1671,-0.1616,-0.3349,-0.1158,0.7987,0.2343,0.0113,-0.2157,99
-0.2067,-0.0246,0.2922,0.4656,-0.4197,-0.0313,0.774,0.0958,0.1671,-0.1616,-0.3349,-0.1158,0.7987,0.2343,0.0113,-0.2157,99
-0.2069,-0.0092,0.2981,0.4565,-0.4265,-0.0325,0.78,0.0925,0.1581,-0.1544,-0.3359,-0.1175,0.8047,0.2344,-0.0047,-0.2011,100
-0.2069,0.009,0.3038,0.4478,-0.4335,-0.0336,0.7865,0.089,0.1472,-0.1466,-0.3367,-0.1191,0.811,0.2342,-0.0213,-0.186,0
-0.2069,0.009,0.3038,0.4478,-0.4335,-0.0336,0.7865,0.089,0.1472,-0.1466,-0.3367,-0.1191,0.811,0.2342,-0.0213,-0.186,0
-0.2067,0.0301,0.3094,0.4395,-0.4406,-0.0344,0.7933,0.085,0.1347,-0.1379,-0.3375,-0.1206,0.8176,0.2336,-0.0383,-0.1702,1
-0.2062,0.054,0.3149,0.4316,-0.4477,-0.0349,0.8006,0.0804,0.1205,-0.1285,-0.3381,-0.1221,0.8245,0.2328,-0.0556,-0.1538,1
-0.2062,0.054,0.3149,0.4316,-0.4477,-0.0349,0.8006,0.0804,0.1205,-0.1285,-0.3381,-0.1221,0.8245,0.2328,-0.0556,-0.1538,1
-0.2054,0.0804,0.3204,0.4243,-0.4548,-0.0353,0.8084,0.075,0.105,-0.1183,-0.3388,-0.1234,0.8318,0.2318,-0.0731,-0.1368,1
-0.2043,0.1091,0.3257,0.4176,-0.4618,-0.0353,0.8166,0.0686,0.0882,-0.1073,-0.3396,-0.1245,0.8395,0.2308,-0.0906,-0.1194,2
-0.2043,0.1091,0.3257,0.4176,-0.4618,-0.0353,0.8166,0.0686,0.0882,-0.1073,-0.3396,-0.1245,0.8395,0.2308,-0.0906,-0.1194,2
-0.2028,0.1395,0.331,0.4114,-0.4687,-0.0351,0.8253,0.0612,0.0703,-0.0955,-0.3405,-0.1254,0.8475,0.2297,-0.1081,-0.1014,2
-0.201,0.1712,0.3362,0.4056,-0.4753,-0.0346,0.8344,0.0526,0.0514,-0.0828,-0.3417,-0.1261,0.8558,0.2286,-0.1253,-0.0829,3
-0.201,0.1712,0.3362,0.4056,-0.4753,-0.0346,0.8344,0.0526,0.0514,-0.0828,-0.3417,-0.1261,0.8558,0.2286,-0.1253,-0.0829,3
-0.1988,0.2033,0.3414,0.4003,-0.4817,-0.0338,0.8441,0.0428,0.0318,-0.0695,-0.3431,-0.1265,0.8646,0.2275,-0.142,-0.0642,3
-0.1961,0.2352,0.3464,0.3952,-0.4878,-0.0328,0.8541,0.0319,0.0117,-0.0555,-0.345,-0.1265,0.8739,0.2263,-0.1583,-0.0451,4
-0.1961,0.2352,0.3464,0.3952,-0.4878,-0.0328,0.8541,0.0319,0.0117,-0.0555,-0.345,-0.1265,0.8739,0.2263,-0.1583,-0.0451,4
-0.1931,0.2661,0.3515,0.3903,-0.4936,-0.0317,0.8646,0.0199,-0.0088,-0.041,-0.3472,-0.1263,0.8835,0.225,-0.1739,-0.0258,4
-0.1898,0.2952,0.3564,0.3854,-0.4991,-0.0304,0.8754,0.0069,-0.0295,-0.026,-0.35,-0.1257,0.8937,0.2235,-0.1887,-0.0064,4
-0.1898,0.2952,0.3564,0.3854,-0.4991,-0.0304,0.8754,0.0069,-0.0295,-0.026,-0.35,-0.1257,0.8937,0.2235,-0.1887,-0.0064,5
-0.1861,0.3217,0.3613,0.3804,-0.5042,-0.0289,0.8865,-0.0069,-0.0502,-0.0107,-0.3533,-0.1249,0.9043,0.2217,-0.2026,0.013,5
-0.1821,0.3449,0.3661,0.3751,-0.5091,-0.0273,0.8979,-0.0215,-0.0707,0.0048,-0.3572,-0.1237,0.9153,0.2196,-0.2157,0.0323,5
-0.1821,0.3449,0.3661,0.3751,-0.5091,-0.0273,0.8979,-0.0215,-0.0707,0.0048,-0.3572,-0.1237,0.9153,0.2196,-0.2157,0.0323,6
-0.1778,0.3641,0.3709,0.3692,-0.5137,-0.0255,0.9095,-0.0368,-0.0908,0.0203,-0.3617,-0.1224,0.9269,0.217,-0.2279,0.0514,6
-0.1778,0.3641,0.3709,0.3692,-0.5181,-0.0237,0.9214,-0.0526,-0.1105,0.0357,-0.3668,-0.1208,0.9389,0.2141,-0.2392,0.0703,6
